File: _posts/2021-06-29-peak-detection-for-qualitative-xrd-analysis-in-r/xrd_standards.csv
d,two_theta,intensity,h,k,l,mult,phase,id
5.3756,16.4773,27.01,1,1,0,4,Anglesite,96-900-4485
4.264,20.8157,797.25,1,0,1,4,Anglesite,96-900-4485
4.236,20.9546,299.41,0,2,0,2,Anglesite,96-900-4485
3.8088,23.3365,532.2,1,1,1,8,Anglesite,96-900-4485
3.6178,24.587,214.91,1,2,0,4,Anglesite,96-900-4485
3.4774,25.5958,280.54,2,0,0,2,Anglesite,96-900-4485
3.3323,26.7312,829.91,0,2,1,4,Anglesite,96-900-4485
3.217,27.7078,677.33,2,1,0,4,Anglesite,96-900-4485
3.0051,29.7045,1000,1,2,1,8,Anglesite,96-900-4485
2.7634,32.3717,362.77,2,1,1,8,Anglesite,96-900-4485
2.6986,33.1701,462.67,0,0,2,2,Anglesite,96-900-4485
2.6878,33.3082,20.29,2,2,0,4,Anglesite,96-900-4485
2.6165,34.2428,97.46,1,3,0,4,Anglesite,96-900-4485
2.4118,37.2519,0,1,1,2,8,Anglesite,96-900-4485
2.406,37.3456,180.66,2,2,1,8,Anglesite,96-900-4485
2.3544,38.1939,19,1,3,1,8,Anglesite,96-900-4485
2.276,39.564,199.74,0,2,2,4,Anglesite,96-900-4485
2.2361,40.3007,51.57,3,1,0,4,Anglesite,96-900-4485
2.1922,41.144,62.88,2,3,0,4,Anglesite,96-900-4485
2.1631,41.7222,283.88,1,2,2,8,Anglesite,96-900-4485
2.132,42.361,56.67,2,0,2,4,Anglesite,96-900-4485
2.1301,42.3998,1.6,3,0,1,4,Anglesite,96-900-4485
2.118,42.6542,1.69,0,4,0,2,Anglesite,96-900-4485
2.0675,43.7487,467.92,2,1,2,8,Anglesite,96-900-4485
2.0658,43.7865,515.15,3,1,1,8,Anglesite,96-900-4485
2.0337,44.5157,3.91,3,2,0,4,Anglesite,96-900-4485
2.031,44.5759,354.65,2,3,1,8,Anglesite,96-900-4485
2.0261,44.69,327.67,1,4,0,4,Anglesite,96-900-4485
1.9716,45.9952,225.06,0,4,1,4,Anglesite,96-900-4485
1.9044,47.7182,40.97,2,2,2,8,Anglesite,96-900-4485
1.9031,47.7535,1.59,3,2,1,8,Anglesite,96-900-4485
1.8969,47.9186,1.12,1,4,1,8,Anglesite,96-900-4485
1.8785,48.4166,73.05,1,3,2,8,Anglesite,96-900-4485
1.8089,50.4077,0.25,2,4,0,4,Anglesite,96-900-4485
1.7919,50.9212,183.67,3,3,0,4,Anglesite,96-900-4485
1.7418,52.4952,87.85,1,0,3,4,Anglesite,96-900-4485
1.7387,52.5941,20.48,4,0,0,2,Anglesite,96-900-4485
1.7218,53.1508,6.91,3,1,2,8,Anglesite,96-900-4485
1.7151,53.3744,29.33,2,4,1,8,Anglesite,96-900-4485
1.7061,53.6801,46.77,1,1,3,8,Anglesite,96-900-4485
1.7032,53.7774,89.7,4,1,0,4,Anglesite,96-900-4485
1.7015,53.8353,14.47,2,3,2,8,Anglesite,96-900-4485
1.7006,53.8677,79.83,3,3,1,8,Anglesite,96-900-4485
1.6661,55.0748,0.11,0,4,2,4,Anglesite,96-900-4485
1.6559,55.443,75.17,0,2,3,4,Anglesite,96-900-4485
1.6462,55.7977,25.5,1,5,0,4,Anglesite,96-900-4485
1.6243,56.6202,40.1,4,1,1,8,Anglesite,96-900-4485
1.6241,56.6255,0.02,3,2,2,8,Anglesite,96-900-4485
1.6203,56.772,186.67,1,4,2,8,Anglesite,96-900-4485
1.6109,57.1329,115.1,1,2,3,8,Anglesite,96-900-4485
1.6085,57.2264,11.33,4,2,0,4,Anglesite,96-900-4485
1.5746,58.5752,9.68,1,5,1,8,Anglesite,96-900-4485
1.5702,58.7555,62.15,2,1,3,8,Anglesite,96-900-4485
1.5637,59.0258,4.46,3,4,0,4,Anglesite,96-900-4485
1.5415,59.9614,17.36,4,2,1,8,Anglesite,96-900-4485
1.5232,60.7569,8.01,2,5,0,4,Anglesite,96-900-4485
1.5026,61.6816,0.44,2,4,2,8,Anglesite,96-900-4485
1.5019,61.7113,0.13,3,4,1,8,Anglesite,96-900-4485
1.4951,62.0248,26.29,2,2,3,8,Anglesite,96-900-4485
1.4928,62.1318,186.7,3,3,2,8,Anglesite,96-900-4485
1.4825,62.6115,7.05,1,3,3,8,Anglesite,96-900-4485
1.4806,62.6999,5.7,4,3,0,4,Anglesite,96-900-4485
1.4659,63.3988,93.48,2,5,1,8,Anglesite,96-900-4485
1.4616,63.6082,22.87,4,0,2,4,Anglesite,96-900-4485
1.4403,64.661,127.29,4,1,2,8,Anglesite,96-900-4485
1.4278,65.297,74.07,4,3,1,8,Anglesite,96-900-4485
1.4213,65.6345,0.49,3,0,3,4,Anglesite,96-900-4485
1.412,66.1228,6.86,0,6,0,2,Anglesite,96-900-4485
1.4054,66.4739,37.77,1,5,2,8,Anglesite,96-900-4485
1.4017,66.6703,111.09,3,1,3,8,Anglesite,96-900-4485
1.3907,67.2681,84.82,2,3,3,8,Anglesite,96-900-4485
1.3838,67.6512,16.64,1,6,0,4,Anglesite,96-900-4485
1.3817,67.7672,11.9,4,2,2,8,Anglesite,96-900-4485
1.3726,68.2771,2.79,5,1,0,4,Anglesite,96-900-4485
1.3712,68.3572,63.95,0,4,3,4,Anglesite,96-900-4485
1.368,68.5404,58.64,3,5,0,4,Anglesite,96-900-4485
1.366,68.6515,50.65,0,6,1,4,Anglesite,96-900-4485
1.353,69.4086,1.2,3,4,2,8,Anglesite,96-900-4485
1.3493,69.6229,56.3,0,0,4,2,Anglesite,96-900-4485
1.3475,69.7315,0.18,3,2,3,8,Anglesite,96-900-4485
1.347,69.7624,43.05,5,0,1,4,Anglesite,96-900-4485
1.3453,69.8619,0.01,1,4,3,8,Anglesite,96-900-4485
1.3439,69.9455,0.02,4,4,0,4,Anglesite,96-900-4485
1.3404,70.1532,66.74,1,6,1,8,Anglesite,96-900-4485
1.3303,70.7688,17.23,5,1,1,8,Anglesite,96-900-4485
1.3265,71.0002,4.16,2,5,2,8,Anglesite,96-900-4485
1.326,71.0279,28.25,3,5,1,8,Anglesite,96-900-4485
1.3216,71.3059,16.94,5,2,0,4,Anglesite,96-900-4485
1.3087,72.1136,1.14,1,1,4,8,Anglesite,96-900-4485
1.3083,72.143,1.67,2,6,0,4,Anglesite,96-900-4485
1.3041,72.4116,24.63,4,4,1,8,Anglesite,96-900-4485
1.2981,72.8004,0.07,4,3,2,8,Anglesite,96-900-4485
1.2857,73.6167,16.5,0,2,4,4,Anglesite,96-900-4485
1.2836,73.753,48.74,5,2,1,8,Anglesite,96-900-4485
1.2756,74.2951,13.4,2,4,3,8,Anglesite,96-900-4485
1.2714,74.5793,14.71,2,6,1,8,Anglesite,96-900-4485
1.2696,74.7073,33.04,3,3,3,8,Anglesite,96-900-4485
1.2643,75.0765,19.01,1,2,4,8,Anglesite,96-900-4485
1.2579,75.5188,17.25,2,0,4,4,Anglesite,96-900-4485
1.2511,76.0056,19.53,0,6,2,4,Anglesite,96-900-4485
1.2478,76.2405,11.76,5,3,0,4,Anglesite,96-900-4485
1.2443,76.4951,58.32,2,1,4,8,Anglesite,96-900-4485
1.2369,77.0392,19.83,4,1,3,8,Anglesite,96-900-4485
1.2313,77.4499,22.28,1,6,2,8,Anglesite,96-900-4485
1.2234,78.0436,0.01,5,1,2,8,Anglesite,96-900-4485
1.2202,78.2937,101.61,3,5,2,8,Anglesite,96-900-4485
1.2158,78.6321,10.37,5,3,1,8,Anglesite,96-900-4485
1.2145,78.7273,4.22,1,5,3,8,Anglesite,96-900-4485
1.2135,78.8074,1.89,4,5,0,4,Anglesite,96-900-4485
1.2059,79.3988,0.01,3,6,0,4,Anglesite,96-900-4485
1.2059,79.4014,3.87,2,2,4,8,Anglesite,96-900-4485
1.203,79.6324,0.05,4,4,2,8,Anglesite,96-900-4485
1.1993,79.9296,13.91,1,3,4,8,Anglesite,96-900-4485
1.1991,79.9398,7.11,4,2,3,8,Anglesite,96-900-4485
1.1924,80.4852,0.53,1,7,0,4,Anglesite,96-900-4485
1.1869,80.9344,26.19,5,2,2,8,Anglesite,96-900-4485
1.1839,81.1777,39.99,4,5,1,8,Anglesite,96-900-4485
1.1802,81.4882,0.09,3,4,3,8,Anglesite,96-900-4485
1.1772,81.7385,7.92,2,6,2,8,Anglesite,96-900-4485
1.1769,81.7649,0.07,3,6,1,8,Anglesite,96-900-4485
1.1643,82.8444,8.83,1,7,1,8,Anglesite,96-900-4485
1.1627,82.9862,34.7,5,4,0,4,Anglesite,96-900-4485
1.1625,82.9996,33.25,2,5,3,8,Anglesite,96-900-4485
1.1591,83.2938,21.88,6,0,0,2,Anglesite,96-900-4485
1.1553,83.6352,6.19,3,1,4,8,Anglesite,96-900-4485
1.1491,84.1884,7.33,2,3,4,8,Anglesite,96-900-4485
1.1485,84.2467,0.18,6,1,0,4,Anglesite,96-900-4485
1.1432,84.7206,30.85,4,3,3,8,Anglesite,96-900-4485
1.143,84.7386,26.31,2,7,0,4,Anglesite,96-900-4485
1.138,85.2013,0.1,0,4,4,4,Anglesite,96-900-4485
1.1366,85.3326,0.02,5,4,1,8,Anglesite,96-900-4485
1.1326,85.7048,16.84,5,3,2,8,Anglesite,96-900-4485
1.1243,86.488,0.41,3,2,4,8,Anglesite,96-900-4485
1.1233,86.5885,0.51,6,1,1,8,Anglesite,96-900-4485
1.1231,86.6106,65.91,1,4,4,8,Anglesite,96-900-4485
1.1182,87.0788,14.2,2,7,1,8,Anglesite,96-900-4485
1.118,87.0971,10.7,6,2,0,4,Anglesite,96-900-4485
1.1108,87.8143,22.11,0,6,3,4,Anglesite,96-900-4485
1.1067,88.2145,0.55,4,5,2,8,Anglesite,96-900-4485
1.101,88.7954,0.02,3,6,2,8,Anglesite,96-900-4485
1.1004,88.8532,20.07,5,0,3,4,Anglesite,96-900-4485
1.0969,89.2205,25.75,1,6,3,8,Anglesite,96-900-4485
1.0961,89.299,2.38,4,6,0,4,Anglesite,96-900-4485
1.0948,89.4324,38.52,6,2,1,8,Anglesite,96-900-4485
1.0913,89.8006,6.84,5,1,3,8,Anglesite,96-900-4485
1.0907,89.8653,0.15,1,7,2,8,Anglesite,96-900-4485
1.0889,90.0454,15.62,3,5,3,8,Anglesite,96-900-4485
1.0816,90.8297,0.02,2,4,4,8,Anglesite,96-900-4485
1.0779,91.2269,51.71,3,3,4,8,Anglesite,96-900-4485
1.0767,91.3594,11.61,4,4,3,8,Anglesite,96-900-4485
1.0751,91.5298,4.19,5,5,0,4,Anglesite,96-900-4485
1.0742,91.6333,6.23,4,6,1,8,Anglesite,96-900-4485
1.0729,91.7747,3.11,3,7,0,4,Anglesite,96-900-4485
1.0723,91.8353,0,6,3,0,4,Anglesite,96-900-4485
1.0678,92.3407,46.4,5,4,2,8,Anglesite,96-900-4485
1.0667,92.463,9.06,1,0,5,4,Anglesite,96-900-4485
1.066,92.5416,6.28,4,0,4,4,Anglesite,96-900-4485
1.0651,92.6436,23.53,5,2,3,8,Anglesite,96-900-4485
1.0651,92.6464,26.25,6,0,2,4,Anglesite,96-900-4485
1.059,93.335,19.97,0,8,0,2,Anglesite,96-900-4485
1.0583,93.4116,8.76,1,1,5,8,Anglesite,96-900-4485
1.0581,93.4396,7.67,2,6,3,8,Anglesite,96-900-4485
1.0576,93.4902,32.01,4,1,4,8,Anglesite,96-900-4485
1.0567,93.5951,1.11,6,1,2,8,Anglesite,96-900-4485
1.0544,93.8666,5.06,5,5,1,8,Anglesite,96-900-4485
1.0525,94.0858,34.88,2,7,2,8,Anglesite,96-900-4485
1.0523,94.112,36.99,3,7,1,8,Anglesite,96-900-4485
1.0518,94.1728,0.02,6,3,1,8,Anglesite,96-900-4485
1.0469,94.7442,0.05,1,8,0,4,Anglesite,96-900-4485
1.046,94.8517,18.27,0,2,5,4,Anglesite,96-900-4485
1.0436,95.1455,9.81,1,5,4,8,Anglesite,96-900-4485
1.0392,95.6764,0.01,0,8,1,4,Anglesite,96-900-4485
1.0344,96.264,26.52,1,2,5,8,Anglesite,96-900-4485
1.0338,96.343,4.47,4,2,4,8,Anglesite,96-900-4485
1.0329,96.4483,20.13,6,2,2,8,Anglesite,96-900-4485
1.0278,97.0909,21.15,1,8,1,8,Anglesite,96-900-4485
1.0253,97.3998,8.13,5,3,3,8,Anglesite,96-900-4485
1.0234,97.6493,8.55,2,1,5,8,Anglesite,96-900-4485
1.0216,97.883,1.17,3,4,4,8,Anglesite,96-900-4485
1.0168,98.4974,0,6,4,0,4,Anglesite,96-900-4485
1.0155,98.6684,3.41,4,6,2,8,Anglesite,96-900-4485
1.0131,98.9927,8.41,2,8,0,4,Anglesite,96-900-4485
1.01,99.3977,2.69,2,5,4,8,Anglesite,96-900-4485
1.006,99.935,19.89,4,5,3,8,Anglesite,96-900-4485
4.9811,17.7924,0.94,0,1,1,4,Cerussite,96-901-3804
4.4252,20.049,141.02,1,1,0,4,Cerussite,96-901-3804
4.2496,20.8868,72.25,0,2,0,2,Cerussite,96-901-3804
3.5915,24.7699,1000,1,1,1,8,Cerussite,96-901-3804
3.4957,25.4601,469.21,0,2,1,4,Cerussite,96-901-3804
3.0737,29.0269,169.63,0,0,2,2,Cerussite,96-901-3804
2.8982,30.8276,3.24,1,2,1,8,Cerussite,96-901-3804
2.8905,30.9113,15.66,0,1,2,4,Cerussite,96-901-3804
2.6438,33.8786,12.42,1,0,2,4,Cerussite,96-901-3804
2.5916,34.5822,143.76,2,0,0,2,Cerussite,96-901-3804
2.573,34.8407,4.2,0,3,1,4,Cerussite,96-901-3804
2.5245,35.5319,170.8,1,1,2,8,Cerussite,96-901-3804
2.4905,36.033,86.37,0,2,2,4,Cerussite,96-901-3804
2.486,36.1016,250.91,1,3,0,4,Cerussite,96-901-3804
2.3046,39.0523,0.02,1,3,1,8,Cerussite,96-901-3804
2.2991,39.1512,3.2,2,1,1,8,Cerussite,96-901-3804
2.2448,40.1369,0.03,1,2,2,8,Cerussite,96-901-3804
2.2126,40.747,60.68,2,2,0,4,Cerussite,96-901-3804
2.1248,42.511,22.26,0,4,0,2,Cerussite,96-901-3804
2.0832,43.4031,0.36,0,3,2,4,Cerussite,96-901-3804
2.0819,43.4315,273.53,2,2,1,8,Cerussite,96-901-3804
2.0082,45.1102,126.56,0,4,1,4,Cerussite,96-901-3804
1.9921,45.4964,0.36,0,1,3,4,Cerussite,96-901-3804
1.9813,45.7569,131.25,2,0,2,4,Cerussite,96-901-3804
1.9329,46.9712,236.72,1,3,2,8,Cerussite,96-901-3804
1.9296,47.0566,0.59,2,1,2,8,Cerussite,96-901-3804
1.8726,48.58,1.56,1,4,1,8,Cerussite,96-901-3804
1.8595,48.9451,171.96,1,1,3,8,Cerussite,96-901-3804
1.8458,49.3325,82.17,0,2,3,4,Cerussite,96-901-3804
1.8259,49.9051,2.88,2,3,1,8,Cerussite,96-901-3804
1.7957,50.8028,42.14,2,2,2,8,Cerussite,96-901-3804
1.7478,52.2991,18.4,0,4,2,4,Cerussite,96-901-3804
1.7388,52.5913,0.82,1,2,3,8,Cerussite,96-901-3804
1.6931,54.1246,18.13,3,1,0,4,Cerussite,96-901-3804
1.6604,55.2827,0,0,3,3,4,Cerussite,96-901-3804
1.6562,55.4332,0.2,1,4,2,8,Cerussite,96-901-3804
1.6431,55.9124,14.41,2,4,0,4,Cerussite,96-901-3804
1.6384,56.09,0.93,0,5,1,4,Cerussite,96-901-3804
1.6323,56.3153,87.52,3,1,1,8,Cerussite,96-901-3804
1.6237,56.6433,0,2,3,2,8,Cerussite,96-901-3804
1.6152,56.9671,14.81,1,5,0,4,Cerussite,96-901-3804
1.5874,58.0582,82.9,2,4,1,8,Cerussite,96-901-3804
1.5812,58.3078,0.08,1,3,3,8,Cerussite,96-901-3804
1.5794,58.3811,0.36,2,1,3,8,Cerussite,96-901-3804
1.5622,59.0882,72.67,1,5,1,8,Cerussite,96-901-3804
1.5489,59.6462,1.69,3,2,1,8,Cerussite,96-901-3804
1.5369,60.1608,19.96,0,0,4,2,Cerussite,96-901-3804
1.5123,61.2401,2.09,0,1,4,4,Cerussite,96-901-3804
1.5061,61.5205,0.23,3,0,2,4,Cerussite,96-901-3804
1.5034,61.6419,48.48,2,2,3,8,Cerussite,96-901-3804
1.4875,62.3749,0.11,0,5,2,4,Cerussite,96-901-3804
1.483,62.586,22.11,3,1,2,8,Cerussite,96-901-3804
1.4751,62.9609,40.84,3,3,0,4,Cerussite,96-901-3804
1.475,62.9653,22.62,0,4,3,4,Cerussite,96-901-3804
1.4735,63.0382,0,1,0,4,4,Cerussite,96-901-3804
1.4518,64.0894,24.6,1,1,4,8,Cerussite,96-901-3804
1.4491,64.2241,20.48,2,4,2,8,Cerussite,96-901-3804
1.4453,64.4147,12.05,0,2,4,4,Cerussite,96-901-3804
1.4344,64.9635,0.27,3,3,1,8,Cerussite,96-901-3804
1.4298,65.1962,22.42,1,5,2,8,Cerussite,96-901-3804
1.4196,65.724,0.22,3,2,2,8,Cerussite,96-901-3804
1.4187,65.7727,0.35,1,4,3,8,Cerussite,96-901-3804
1.4165,65.8843,18.29,0,6,0,2,Cerussite,96-901-3804
1.398,66.8687,0,2,3,3,8,Cerussite,96-901-3804
1.3922,67.1896,0.45,1,2,4,8,Cerussite,96-901-3804
1.3848,67.5918,0.16,2,5,1,8,Cerussite,96-901-3804
1.3804,67.8409,0,0,6,1,4,Cerussite,96-901-3804
1.3509,69.5302,0.21,0,3,4,4,Cerussite,96-901-3804
1.3339,70.5486,0.03,1,6,1,8,Cerussite,96-901-3804
1.3299,70.7925,60.3,3,3,2,8,Cerussite,96-901-3804
1.3219,71.2838,28.35,2,0,4,4,Cerussite,96-901-3804
1.3097,72.0493,0.01,3,4,1,8,Cerussite,96-901-3804
1.3083,72.1411,0.08,0,5,3,4,Cerussite,96-901-3804
1.3072,72.2093,56.62,1,3,4,8,Cerussite,96-901-3804
1.3062,72.2748,0.03,2,1,4,8,Cerussite,96-901-3804
1.3052,72.3377,48.86,3,1,3,8,Cerussite,96-901-3804
1.2958,72.9474,17.95,4,0,0,2,Cerussite,96-901-3804
1.2901,73.3217,0.24,2,5,2,8,Cerussite,96-901-3804
1.2865,73.5623,26.38,0,6,2,4,Cerussite,96-901-3804
1.2819,73.8686,44.69,2,4,3,8,Cerussite,96-901-3804
1.2685,74.7814,41.59,1,5,3,8,Cerussite,96-901-3804
1.2622,75.2165,10.96,2,2,4,8,Cerussite,96-901-3804
1.2614,75.2784,0.22,3,2,3,8,Cerussite,96-901-3804
1.2541,75.7934,0,4,1,1,8,Cerussite,96-901-3804
1.2486,76.1842,0.5,1,6,2,8,Cerussite,96-901-3804
1.2453,76.4252,4.82,0,4,4,4,Cerussite,96-901-3804
1.243,76.5914,31.16,2,6,0,4,Cerussite,96-901-3804
1.2395,76.8479,4.56,4,2,0,4,Cerussite,96-901-3804
1.2287,77.6436,0.01,3,4,2,8,Cerussite,96-901-3804
1.2183,78.4343,0.06,2,6,1,8,Cerussite,96-901-3804
1.2168,78.5495,0.24,0,1,5,4,Cerussite,96-901-3804
1.215,78.689,30.94,4,2,1,8,Cerussite,96-901-3804
1.2117,78.9453,3.85,3,5,0,4,Cerussite,96-901-3804
1.2108,79.0155,0.08,1,4,4,8,Cerussite,96-901-3804
1.1979,80.0362,0.59,2,3,4,8,Cerussite,96-901-3804
1.1972,80.097,0.17,3,3,3,8,Cerussite,96-901-3804
1.194,80.3493,16.61,4,0,2,4,Cerussite,96-901-3804
1.1912,80.5834,0,0,7,1,4,Cerussite,96-901-3804
1.1888,80.7732,27.89,3,5,1,8,Cerussite,96-901-3804
1.1846,81.1209,27.54,1,1,5,8,Cerussite,96-901-3804
1.1824,81.3027,0.26,4,1,2,8,Cerussite,96-901-3804
1.1822,81.3243,3.25,1,7,0,4,Cerussite,96-901-3804
1.1811,81.4173,12.76,0,2,5,4,Cerussite,96-901-3804
1.1679,82.5312,0.1,2,5,3,8,Cerussite,96-901-3804
1.1652,82.7636,0.14,0,6,3,4,Cerussite,96-901-3804
1.1609,83.1402,26.1,1,7,1,8,Cerussite,96-901-3804
1.1573,83.4545,0.06,4,3,1,8,Cerussite,96-901-3804
1.1523,83.8988,28.7,2,6,2,8,Cerussite,96-901-3804
1.1515,83.9691,0.17,1,2,5,8,Cerussite,96-901-3804
1.1495,84.1498,9.79,4,2,2,8,Cerussite,96-901-3804
1.1483,84.2596,0.11,3,0,4,4,Cerussite,96-901-3804
1.14,85.017,0.02,0,5,4,4,Cerussite,96-901-3804
1.138,85.2049,8.13,3,1,4,8,Cerussite,96-901-3804
1.1369,85.3085,0,1,6,3,8,Cerussite,96-901-3804
1.1293,86.0202,0.03,0,7,2,4,Cerussite,96-901-3804
1.1279,86.1528,0.09,0,3,5,4,Cerussite,96-901-3804
1.1273,86.2078,9.97,3,5,2,8,Cerussite,96-901-3804
1.1224,86.6734,7.25,2,4,4,8,Cerussite,96-901-3804
1.1218,86.7334,0.15,3,4,3,8,Cerussite,96-901-3804
1.1134,87.5534,8.53,1,5,4,8,Cerussite,96-901-3804
1.1085,88.0339,0.03,3,2,4,8,Cerussite,96-901-3804
1.1063,88.2581,3.7,4,4,0,4,Cerussite,96-901-3804
1.1034,88.5541,7.23,1,7,2,8,Cerussite,96-901-3804
1.1021,88.6865,0,1,3,5,8,Cerussite,96-901-3804
1.1015,88.7489,0.92,2,1,5,8,Cerussite,96-901-3804
1.1003,88.8662,0.06,4,3,2,8,Cerussite,96-901-3804
1.0888,90.0576,23.91,4,4,1,8,Cerussite,96-901-3804
1.0862,90.3321,0.09,4,1,3,8,Cerussite,96-901-3804
1.0823,90.7492,0,2,7,1,8,Cerussite,96-901-3804
1.0784,91.1671,0,3,6,1,8,Cerussite,96-901-3804
1.0747,91.573,22.21,2,2,5,8,Cerussite,96-901-3804
1.0642,92.7417,27.26,3,3,4,8,Cerussite,96-901-3804
1.0642,92.7457,11.29,0,4,5,4,Cerussite,96-901-3804
1.0627,92.9075,0,2,6,3,8,Cerussite,96-901-3804
1.0624,92.9469,2.24,0,8,0,2,Cerussite,96-901-3804
1.0606,93.1575,19.21,4,2,3,8,Cerussite,96-901-3804
1.0469,94.7503,10.1,0,8,1,4,Cerussite,96-901-3804
1.0446,95.0258,0.04,0,7,3,4,Cerussite,96-901-3804
1.0435,95.1537,0.45,2,5,4,8,Cerussite,96-901-3804
1.043,95.2138,17.81,3,5,3,8,Cerussite,96-901-3804
1.0424,95.283,0.08,1,4,5,8,Cerussite,96-901-3804
1.0416,95.3852,12.2,0,6,4,4,Cerussite,96-901-3804
1.0409,95.4635,5.7,4,4,2,8,Cerussite,96-901-3804
1.0352,96.1587,0.34,2,7,2,8,Cerussite,96-901-3804
1.0342,96.2918,0.17,2,3,5,8,Cerussite,96-901-3804
1.0319,96.579,0.65,3,6,2,8,Cerussite,96-901-3804
1.029,96.934,1.51,5,1,0,4,Cerussite,96-901-3804
1.0262,97.2954,0.14,1,8,1,8,Cerussite,96-901-3804
1.0246,97.4969,8.07,0,0,6,2,Cerussite,96-901-3804
1.024,97.5723,19.63,1,7,3,8,Cerussite,96-901-3804
1.0215,97.8872,0,4,3,3,8,Cerussite,96-901-3804
1.0212,97.9334,0.05,1,6,4,8,Cerussite,96-901-3804
1.0172,98.4473,0.06,0,1,6,4,Cerussite,96-901-3804
1.0163,98.5609,0.07,4,5,1,8,Cerussite,96-901-3804
1.0149,98.7502,17.32,5,1,1,8,Cerussite,96-901-3804
1.0102,99.3713,0.09,3,4,4,8,Cerussite,96-901-3804
7.9007,11.1902,25.97,0,0,3,2,Hydrocerussite,96-201-2741
4.4624,19.8806,273.67,1,0,1,6,Hydrocerussite,96-201-2741
4.2425,20.9222,270.69,1,0,2,6,Hydrocerussite,96-201-2741
3.9503,22.489,0.36,0,0,6,2,Hydrocerussite,96-201-2741
3.6056,24.6713,748.59,1,0,4,6,Hydrocerussite,96-201-2741
3.2802,27.1637,1000,1,0,5,6,Hydrocerussite,96-201-2741
2.715,32.9645,87.32,1,0,7,6,Hydrocerussite,96-201-2741
2.6336,34.0146,341.11,0,0,9,2,Hydrocerussite,96-201-2741
2.6233,34.1524,538.6,1,1,0,6,Hydrocerussite,96-201-2741
2.4896,36.0469,92.78,1,1,3,12,Hydrocerussite,96-201-2741
2.4817,36.1649,0.35,1,0,8,6,Hydrocerussite,96-201-2741
2.2614,39.8298,13.58,2,0,1,6,Hydrocerussite,96-201-2741
2.2312,40.3933,243.46,2,0,2,6,Hydrocerussite,96-201-2741
2.1853,41.2795,0.58,1,1,6,12,Hydrocerussite,96-201-2741
2.1212,42.5858,148.6,2,0,4,6,Hydrocerussite,96-201-2741
2.1015,43.0066,181.39,1,0,10,6,Hydrocerussite,96-201-2741
2.0487,44.1718,182.52,2,0,5,6,Hydrocerussite,96-201-2741
1.9752,45.908,3.81,0,0,12,2,Hydrocerussite,96-201-2741
1.9469,46.6137,16.72,1,0,11,6,Hydrocerussite,96-201-2741
1.8865,48.1983,127,2,0,7,6,Hydrocerussite,96-201-2741
1.8586,48.9709,293.01,1,1,9,12,Hydrocerussite,96-201-2741
1.8028,50.5897,0.4,2,0,8,6,Hydrocerussite,96-201-2741
1.7128,53.4518,3.98,2,1,1,12,Hydrocerussite,96-201-2741
1.6996,53.9025,163.95,2,1,2,12,Hydrocerussite,96-201-2741
1.6921,54.1604,31.97,1,0,13,6,Hydrocerussite,96-201-2741
1.6494,55.6801,37.03,2,1,4,12,Hydrocerussite,96-201-2741
1.6401,56.0256,25.21,2,0,10,6,Hydrocerussite,96-201-2741
1.6146,56.989,72.72,2,1,5,12,Hydrocerussite,96-201-2741
1.5864,58.097,133.21,1,0,14,6,Hydrocerussite,96-201-2741
1.5801,58.3515,3.56,0,0,15,2,Hydrocerussite,96-201-2741
1.5779,58.4421,69.96,1,1,12,12,Hydrocerussite,96-201-2741
1.5634,59.0385,38.76,2,0,11,6,Hydrocerussite,96-201-2741
1.5316,60.3894,131.84,2,1,7,12,Hydrocerussite,96-201-2741
1.5145,61.1419,40.78,3,0,0,6,Hydrocerussite,96-201-2741
1.4875,62.3783,60.08,3,0,3,6,Hydrocerussite,96-201-2741
1.4858,62.4568,12.94,2,1,8,12,Hydrocerussite,96-201-2741
1.4219,65.6024,11.22,2,0,13,6,Hydrocerussite,96-201-2741
1.4142,66.0088,12.32,3,0,6,6,Hydrocerussite,96-201-2741
1.4084,66.3131,9.61,1,0,16,6,Hydrocerussite,96-201-2741
1.3907,67.2712,30.42,2,1,10,12,Hydrocerussite,96-201-2741
1.3575,69.1434,42.42,2,0,14,6,Hydrocerussite,96-201-2741
1.3535,69.3747,6.48,1,1,15,12,Hydrocerussite,96-201-2741
1.343,70.0007,39.78,2,1,11,12,Hydrocerussite,96-201-2741
1.3329,70.608,3.26,1,0,17,6,Hydrocerussite,96-201-2741
1.3168,71.6043,14.68,0,0,18,2,Hydrocerussite,96-201-2741
1.3129,71.8481,37.4,3,0,9,6,Hydrocerussite,96-201-2741
1.3116,71.9293,33.87,2,2,0,6,Hydrocerussite,96-201-2741
1.2939,73.0715,39.16,2,2,3,12,Hydrocerussite,96-201-2741
1.2584,75.4873,0.14,3,1,1,12,Hydrocerussite,96-201-2741
1.2531,75.8621,64.38,3,1,2,12,Hydrocerussite,96-201-2741
1.2501,76.0773,2.33,2,1,13,12,Hydrocerussite,96-201-2741
1.2448,76.4589,14.16,2,2,6,12,Hydrocerussite,96-201-2741
1.2409,76.745,17.46,2,0,16,6,Hydrocerussite,96-201-2741
1.2326,77.3551,8.91,3,1,4,12,Hydrocerussite,96-201-2741
1.2179,78.4691,25.82,3,1,5,12,Hydrocerussite,96-201-2741
1.2056,79.4218,35.22,2,1,14,12,Hydrocerussite,96-201-2741
1.203,79.634,40.53,1,0,19,6,Hydrocerussite,96-201-2741
1.2019,79.7202,51.55,3,0,12,6,Hydrocerussite,96-201-2741
1.1883,80.8177,3,2,0,17,6,Hydrocerussite,96-201-2741
1.181,81.4195,59.63,3,1,7,12,Hydrocerussite,96-201-2741
1.1768,81.7712,28.41,1,1,18,12,Hydrocerussite,96-201-2741
1.1741,82.0051,32.94,2,2,9,12,Hydrocerussite,96-201-2741
1.1596,83.2515,7.41,3,1,8,12,Hydrocerussite,96-201-2741
1.1467,84.4018,0.01,1,0,20,6,Hydrocerussite,96-201-2741
1.1346,85.5183,0,4,0,1,6,Hydrocerussite,96-201-2741
1.1307,85.8824,27.95,4,0,2,6,Hydrocerussite,96-201-2741
1.1287,86.0764,1.22,0,0,21,2,Hydrocerussite,96-201-2741
1.1217,86.7419,35.82,2,1,16,12,Hydrocerussite,96-201-2741
1.1156,87.3374,4.72,4,0,4,6,Hydrocerussite,96-201-2741
1.1127,87.6236,4.37,3,1,10,12,Hydrocerussite,96-201-2741
1.1046,88.4274,8.13,4,0,5,6,Hydrocerussite,96-201-2741
1.0935,89.5713,11.98,2,0,19,6,Hydrocerussite,96-201-2741
1.0934,89.5789,0.09,3,0,15,6,Hydrocerussite,96-201-2741
1.0927,89.6561,31.84,2,2,12,12,Hydrocerussite,96-201-2741
1.0878,90.1659,23.58,3,1,11,12,Hydrocerussite,96-201-2741
1.0824,90.7378,17.16,2,1,17,12,Hydrocerussite,96-201-2741
1.0769,91.3325,23.81,4,0,7,6,Hydrocerussite,96-201-2741
1.0606,93.1495,2.69,4,0,8,6,Hydrocerussite,96-201-2741
1.0507,94.2956,1.22,2,0,20,6,Hydrocerussite,96-201-2741
1.0483,94.5823,0.59,1,0,22,6,Hydrocerussite,96-201-2741
1.0414,95.4117,0.06,3,2,1,12,Hydrocerussite,96-201-2741
1.0384,95.7765,23.52,3,2,2,12,Hydrocerussite,96-201-2741
1.0368,95.9711,22.95,1,1,21,12,Hydrocerussite,96-201-2741
1.0367,95.9863,0.03,3,1,13,12,Hydrocerussite,96-201-2741
1.0266,97.2384,8.99,3,2,4,12,Hydrocerussite,96-201-2741
1.0243,97.5267,1.84,4,0,10,6,Hydrocerussite,96-201-2741
1.0181,98.3378,21.18,3,2,5,12,Hydrocerussite,96-201-2741
1.0109,99.2839,21.58,3,1,14,12,Hydrocerussite,96-201-2741
1.0093,99.4955,21.31,2,1,19,12,Hydrocerussite,96-201-2741
1.0092,99.5032,0.42,2,2,15,12,Hydrocerussite,96-201-2741
8.5433,10.346,15.4,1,0,0,6,Pb10(PO4)6O,96-810-3821
5.6066,15.7937,1.57,1,0,1,12,Pb10(PO4)6O,96-810-3821
4.9325,17.9691,76.46,1,1,0,6,Pb10(PO4)6O,96-810-3821
4.2717,20.7777,386.2,2,0,0,6,Pb10(PO4)6O,96-810-3821
4.1095,21.6073,428.7,1,1,1,12,Pb10(PO4)6O,96-810-3821
3.7153,23.932,93.66,0,0,2,2,Pb10(PO4)6O,96-810-3821
3.7033,24.0105,5.45,2,0,1,12,Pb10(PO4)6O,96-810-3821
3.4071,26.1338,452.71,0,1,2,12,Pb10(PO4)6O,96-810-3821
3.2291,27.602,472.73,2,1,0,6,Pb10(PO4)6O,96-810-3821
2.9676,30.0887,927.78,1,1,2,12,Pb10(PO4)6O,96-810-3821
2.9615,30.1522,1000,2,1,1,12,Pb10(PO4)6O,96-810-3821
2.8478,31.387,468.86,3,0,0,6,Pb10(PO4)6O,96-810-3821
2.8033,31.8979,14.33,2,0,2,12,Pb10(PO4)6O,96-810-3821
2.6592,33.6771,2.78,3,0,1,12,Pb10(PO4)6O,96-810-3821
2.4662,36.4001,20.25,2,2,0,6,Pb10(PO4)6O,96-810-3821
2.4372,36.8494,4.21,2,1,2,12,Pb10(PO4)6O,96-810-3821
2.3789,37.7862,0.07,0,1,3,12,Pb10(PO4)6O,96-810-3821
2.3695,37.942,13.17,3,1,0,6,Pb10(PO4)6O,96-810-3821
2.3407,38.4271,5.49,2,2,1,12,Pb10(PO4)6O,96-810-3821
2.2602,39.8525,58.14,3,0,2,12,Pb10(PO4)6O,96-810-3821
2.2575,39.9022,3.53,3,1,1,12,Pb10(PO4)6O,96-810-3821
2.2135,40.7307,156.61,1,1,3,12,Pb10(PO4)6O,96-810-3821
2.1427,42.1385,5.39,0,2,3,12,Pb10(PO4)6O,96-810-3821
2.1358,42.2808,59.12,4,0,0,6,Pb10(PO4)6O,96-810-3821
2.0547,44.0347,362.31,2,2,2,12,Pb10(PO4)6O,96-810-3821
2.0527,44.0805,0.13,4,0,1,12,Pb10(PO4)6O,96-810-3821
1.9978,45.3591,233.24,3,1,2,12,Pb10(PO4)6O,96-810-3821
1.9653,46.1519,316.21,2,1,3,12,Pb10(PO4)6O,96-810-3821
1.96,46.2844,104.55,3,2,0,6,Pb10(PO4)6O,96-810-3821
1.8952,47.9649,225.48,3,2,1,12,Pb10(PO4)6O,96-810-3821
1.8689,48.6825,1.16,3,0,3,12,Pb10(PO4)6O,96-810-3821
1.8643,48.8097,245.3,4,1,0,6,Pb10(PO4)6O,96-810-3821
1.8577,48.9962,129.58,0,0,4,2,Pb10(PO4)6O,96-810-3821
1.8517,49.1649,353.06,4,0,2,12,Pb10(PO4)6O,96-810-3821
1.8152,50.2194,1.1,0,1,4,12,Pb10(PO4)6O,96-810-3821
1.8083,50.4264,1.18,4,1,1,12,Pb10(PO4)6O,96-810-3821
1.7476,52.3053,0.29,2,2,3,12,Pb10(PO4)6O,96-810-3821
1.7384,52.6032,16.72,1,1,4,12,Pb10(PO4)6O,96-810-3821
1.7335,52.7635,4.44,3,2,2,12,Pb10(PO4)6O,96-810-3821
1.7122,53.4735,2.27,3,1,3,12,Pb10(PO4)6O,96-810-3821
1.7087,53.5924,0.54,5,0,0,6,Pb10(PO4)6O,96-810-3821
1.7035,53.7668,52.46,0,2,4,12,Pb10(PO4)6O,96-810-3821
1.6663,55.0691,23,4,1,2,12,Pb10(PO4)6O,96-810-3821
1.6652,55.1079,2.49,5,0,1,12,Pb10(PO4)6O,96-810-3821
1.6442,55.8745,7.19,3,3,0,6,Pb10(PO4)6O,96-810-3821
1.6175,56.8784,0.17,4,0,3,12,Pb10(PO4)6O,96-810-3821
1.6145,56.9925,66.1,4,2,0,6,Pb10(PO4)6O,96-810-3821
1.6102,57.1599,132.37,2,1,4,12,Pb10(PO4)6O,96-810-3821
1.6053,57.3494,71.95,3,3,1,12,Pb10(PO4)6O,96-810-3821
1.5777,58.4491,0.36,4,2,1,12,Pb10(PO4)6O,96-810-3821
1.5559,59.3509,110.34,0,3,4,12,Pb10(PO4)6O,96-810-3821
1.5524,59.499,81.88,5,0,2,12,Pb10(PO4)6O,96-810-3821
1.537,60.156,98.81,3,2,3,12,Pb10(PO4)6O,96-810-3821
1.5344,60.2662,38.73,5,1,0,6,Pb10(PO4)6O,96-810-3821
1.5035,61.6384,102.99,3,3,2,12,Pb10(PO4)6O,96-810-3821
1.5027,61.6746,92.99,5,1,1,12,Pb10(PO4)6O,96-810-3821
1.4895,62.2818,1.59,4,1,3,12,Pb10(PO4)6O,96-810-3821
1.4838,62.5483,6.26,2,2,4,12,Pb10(PO4)6O,96-810-3821
1.4808,62.6919,1.73,4,2,2,12,Pb10(PO4)6O,96-810-3821
1.4641,63.4863,0.16,0,1,5,12,Pb10(PO4)6O,96-810-3821
1.4619,63.5932,0.35,3,1,4,12,Pb10(PO4)6O,96-810-3821
1.4239,65.501,4.7,6,0,0,6,Pb10(PO4)6O,96-810-3821
1.4229,65.5504,21.58,1,1,5,12,Pb10(PO4)6O,96-810-3821
1.4182,65.7952,1.61,5,1,2,12,Pb10(PO4)6O,96-810-3821
1.4065,66.4164,0.5,5,0,3,12,Pb10(PO4)6O,96-810-3821
1.4045,66.5207,1.03,4,3,0,6,Pb10(PO4)6O,96-810-3821
1.4036,66.5696,0.74,0,2,5,12,Pb10(PO4)6O,96-810-3821
1.4017,66.6738,28.49,4,0,4,12,Pb10(PO4)6O,96-810-3821
1.3984,66.8473,0,6,0,1,12,Pb10(PO4)6O,96-810-3821
1.3801,67.8567,2.8,4,3,1,12,Pb10(PO4)6O,96-810-3821
1.3698,68.4342,30.53,3,3,3,12,Pb10(PO4)6O,96-810-3821
1.368,68.537,13.91,5,2,0,6,Pb10(PO4)6O,96-810-3821
1.3526,69.4325,0.9,4,2,3,12,Pb10(PO4)6O,96-810-3821
1.35,69.5826,77.88,2,1,5,12,Pb10(PO4)6O,96-810-3821
1.3483,69.6846,49.24,3,2,4,12,Pb10(PO4)6O,96-810-3821
1.3454,69.8544,60.17,5,2,1,12,Pb10(PO4)6O,96-810-3821
1.3296,70.8099,61.14,6,0,2,12,Pb10(PO4)6O,96-810-3821
1.3175,71.5583,0.14,0,3,5,12,Pb10(PO4)6O,96-810-3821
1.3159,71.6591,139.84,4,1,4,12,Pb10(PO4)6O,96-810-3821
1.3138,71.7934,44.85,4,3,2,12,Pb10(PO4)6O,96-810-3821
1.3044,72.3902,50.37,5,1,3,12,Pb10(PO4)6O,96-810-3821
1.3028,72.4905,34.29,6,1,0,6,Pb10(PO4)6O,96-810-3821
1.2838,73.7441,123.55,5,2,2,12,Pb10(PO4)6O,96-810-3821
1.2833,73.7773,50.71,6,1,1,12,Pb10(PO4)6O,96-810-3821
1.2729,74.4807,0.67,2,2,5,12,Pb10(PO4)6O,96-810-3821
1.259,75.4453,0,3,1,5,12,Pb10(PO4)6O,96-810-3821
1.2576,75.5441,1.3,5,0,4,12,Pb10(PO4)6O,96-810-3821
1.2384,76.9239,4.11,0,0,6,2,Pb10(PO4)6O,96-810-3821
1.2344,77.2182,0.14,6,0,3,12,Pb10(PO4)6O,96-810-3821
1.2331,77.3163,64.27,4,4,0,6,Pb10(PO4)6O,96-810-3821
1.2312,77.4603,5.5,3,3,4,12,Pb10(PO4)6O,96-810-3821
1.2294,77.5909,1.19,6,1,2,12,Pb10(PO4)6O,96-810-3821
1.2256,77.8785,19.11,0,1,6,12,Pb10(PO4)6O,96-810-3821
1.2218,78.1717,4.35,4,3,3,12,Pb10(PO4)6O,96-810-3821
1.2205,78.2694,0.79,7,0,0,6,Pb10(PO4)6O,96-810-3821
1.2199,78.3153,0.03,0,4,5,12,Pb10(PO4)6O,96-810-3821
1.2186,78.4129,56.43,4,2,4,12,Pb10(PO4)6O,96-810-3821
1.2165,78.5755,1.03,4,4,1,12,Pb10(PO4)6O,96-810-3821
1.2043,79.5244,0.37,7,0,1,12,Pb10(PO4)6O,96-810-3821
1.2012,79.7777,54.25,1,1,6,12,Pb10(PO4)6O,96-810-3821
1.1975,80.0691,40.82,5,2,3,12,Pb10(PO4)6O,96-810-3821
1.1895,80.7229,0.12,0,2,6,12,Pb10(PO4)6O,96-810-3821
1.1847,81.1103,17.83,6,2,0,6,Pb10(PO4)6O,96-810-3821
1.1842,81.1557,41.08,3,2,5,12,Pb10(PO4)6O,96-810-3821
1.183,81.2525,37.13,5,1,4,12,Pb10(PO4)6O,96-810-3821
1.1703,82.3225,4.35,4,4,2,12,Pb10(PO4)6O,96-810-3821
1.17,82.3547,1.3,6,2,1,12,Pb10(PO4)6O,96-810-3821
1.1621,83.0368,0.23,4,1,5,12,Pb10(PO4)6O,96-810-3821
1.1595,83.2615,63.52,7,0,2,12,Pb10(PO4)6O,96-810-3821
1.1563,83.5445,0.14,2,1,6,12,Pb10(PO4)6O,96-810-3821
1.1531,83.8331,30.84,6,1,3,12,Pb10(PO4)6O,96-810-3821
1.1357,85.4164,3.05,0,3,6,12,Pb10(PO4)6O,96-810-3821
1.1316,85.8,34.66,7,1,0,6,Pb10(PO4)6O,96-810-3821
1.1301,85.9409,4.88,6,0,4,12,Pb10(PO4)6O,96-810-3821
1.1287,86.0687,0.57,6,2,2,12,Pb10(PO4)6O,96-810-3821
1.1213,86.7785,0.83,5,0,5,12,Pb10(PO4)6O,96-810-3821
1.1203,86.8743,1.06,4,3,4,12,Pb10(PO4)6O,96-810-3821
1.1187,87.0339,0.44,7,1,1,12,Pb10(PO4)6O,96-810-3821
1.1067,88.2157,39.08,2,2,6,12,Pb10(PO4)6O,96-810-3821
1.1039,88.5027,0.02,4,4,3,12,Pb10(PO4)6O,96-810-3821
1.1025,88.6432,18.42,3,3,5,12,Pb10(PO4)6O,96-810-3821
1.1016,88.7389,6.78,5,2,4,12,Pb10(PO4)6O,96-810-3821
1.0976,89.1475,29.49,3,1,6,12,Pb10(PO4)6O,96-810-3821
1.0948,89.4344,1.48,7,0,3,12,Pb10(PO4)6O,96-810-3821
1.0939,89.53,0.37,5,4,0,6,Pb10(PO4)6O,96-810-3821
1.0934,89.5749,0.51,4,2,5,12,Pb10(PO4)6O,96-810-3821
1.0825,90.7297,10.1,7,1,2,12,Pb10(PO4)6O,96-810-3821
1.0822,90.7615,1.14,5,4,1,12,Pb10(PO4)6O,96-810-3821
1.0764,91.3933,2.42,6,3,0,6,Pb10(PO4)6O,96-810-3821
1.0714,91.9426,49.84,0,4,6,12,Pb10(PO4)6O,96-810-3821
1.0688,92.2297,2.05,6,2,3,12,Pb10(PO4)6O,96-810-3821
1.0679,92.3254,9.18,8,0,0,6,Pb10(PO4)6O,96-810-3821
1.0675,92.3703,28.54,5,1,5,12,Pb10(PO4)6O,96-810-3821
1.0667,92.466,37.71,6,1,4,12,Pb10(PO4)6O,96-810-3821
1.0652,92.6256,30.05,6,3,1,12,Pb10(PO4)6O,96-810-3821
1.0534,93.981,0.37,0,1,7,12,Pb10(PO4)6O,96-810-3821
1.0493,94.4604,30.7,5,4,2,12,Pb10(PO4)6O,96-810-3821
1.0469,94.7424,0.37,3,2,6,12,Pb10(PO4)6O,96-810-3821
1.0437,95.1263,13.44,7,2,0,6,Pb10(PO4)6O,96-810-3821
1.0378,95.8511,7.67,1,1,7,12,Pb10(PO4)6O,96-810-3821
1.0338,96.3319,59.97,6,3,2,12,Pb10(PO4)6O,96-810-3821
1.0336,96.364,21.24,7,2,1,12,Pb10(PO4)6O,96-810-3821
1.0316,96.6148,5.4,4,1,6,12,Pb10(PO4)6O,96-810-3821
1.0302,96.7884,0.11,0,2,7,12,Pb10(PO4)6O,96-810-3821
1.0293,96.9037,0.22,7,1,3,12,Pb10(PO4)6O,96-810-3821
1.0281,97.0452,0,6,0,5,12,Pb10(PO4)6O,96-810-3821
1.0274,97.1416,78.08,4,4,4,12,Pb10(PO4)6O,96-810-3821
1.0264,97.2701,56.33,8,0,2,12,Pb10(PO4)6O,96-810-3821
1.0208,97.9849,0.58,4,3,5,12,Pb10(PO4)6O,96-810-3821
1.02,98.0815,0.77,7,0,4,12,Pb10(PO4)6O,96-810-3821
1.0084,99.6122,30.18,2,1,7,12,Pb10(PO4)6O,96-810-3821
1.0065,99.871,23.95,5,2,5,12,Pb10(PO4)6O,96-810-3821
14.7898,5.971,0.52,1,0,0,2,Pb5O4(CrO4),96-153-4030
9.1648,9.6427,0.04,1,1,0,4,Pb5O4(CrO4),96-153-4030
8.2225,10.7509,144.15,0,1,1,4,Pb5O4(CrO4),96-153-4030
7.3949,11.9582,51.57,2,0,0,2,Pb5O4(CrO4),96-153-4030
7.2238,12.2425,0.1,1,1,-1,4,Pb5O4(CrO4),96-153-4030
7.1498,12.3698,0.14,1,1,1,4,Pb5O4(CrO4),96-153-4030
6.2475,14.1649,43.38,2,1,0,4,Pb5O4(CrO4),96-153-4030
5.8385,15.1628,3.77,0,2,0,2,Pb5O4(CrO4),96-153-4030
5.7902,15.2901,38.26,0,0,2,2,Pb5O4(CrO4),96-153-4030
5.5318,16.0087,0,2,1,-1,4,Pb5O4(CrO4),96-153-4030
5.4655,16.2043,41.82,2,1,1,4,Pb5O4(CrO4),96-153-4030
5.4307,16.309,0.24,1,2,0,4,Pb5O4(CrO4),96-153-4030
5.4232,16.3314,0.36,-1,0,2,2,Pb5O4(CrO4),96-153-4030
5.3607,16.5233,0,1,0,2,2,Pb5O4(CrO4),96-153-4030
5.2134,16.9936,0.05,0,2,1,4,Pb5O4(CrO4),96-153-4030
5.1874,17.0792,15.19,0,1,2,4,Pb5O4(CrO4),96-153-4030
4.9299,17.9785,0.18,3,0,0,2,Pb5O4(CrO4),96-153-4030
4.9288,17.9829,0.1,-1,2,1,4,Pb5O4(CrO4),96-153-4030
4.9186,18.0202,0.95,-1,1,2,4,Pb5O4(CrO4),96-153-4030
4.905,18.0706,0.01,1,2,1,4,Pb5O4(CrO4),96-153-4030
4.8718,18.1947,2,1,1,2,4,Pb5O4(CrO4),96-153-4030
4.5972,19.2917,2.24,2,0,-2,2,Pb5O4(CrO4),96-153-4030
4.5824,19.3546,0.78,2,2,0,4,Pb5O4(CrO4),96-153-4030
4.5418,19.5296,3.02,3,1,0,4,Pb5O4(CrO4),96-153-4030
4.5216,19.6176,4.61,2,0,2,2,Pb5O4(CrO4),96-153-4030
4.2776,20.7483,5.18,2,1,-2,4,Pb5O4(CrO4),96-153-4030
4.2765,20.7541,22.65,2,2,-1,4,Pb5O4(CrO4),96-153-4030
4.251,20.8798,0.17,3,1,-1,4,Pb5O4(CrO4),96-153-4030
4.2456,20.9067,0.36,2,2,1,4,Pb5O4(CrO4),96-153-4030
4.2165,21.0526,0.01,2,1,2,4,Pb5O4(CrO4),96-153-4030
4.2058,21.107,1.23,3,1,1,4,Pb5O4(CrO4),96-153-4030
4.1112,21.598,5.79,0,2,2,4,Pb5O4(CrO4),96-153-4030
3.9735,22.3561,3.38,-1,2,2,4,Pb5O4(CrO4),96-153-4030
3.9487,22.4983,0.63,1,2,2,4,Pb5O4(CrO4),96-153-4030
3.7857,23.4805,0.27,3,0,-2,2,Pb5O4(CrO4),96-153-4030
3.7667,23.6005,0.01,3,2,0,4,Pb5O4(CrO4),96-153-4030
3.7642,23.6169,0.12,1,3,0,4,Pb5O4(CrO4),96-153-4030
3.7224,23.8857,0.02,3,0,2,2,Pb5O4(CrO4),96-153-4030
3.6975,24.0492,0.08,4,0,0,2,Pb5O4(CrO4),96-153-4030
3.6895,24.1019,3.48,0,3,1,4,Pb5O4(CrO4),96-153-4030
3.665,24.2652,0.51,0,1,3,4,Pb5O4(CrO4),96-153-4030
3.6119,24.6276,6.03,2,2,-2,4,Pb5O4(CrO4),96-153-4030
3.6012,24.7021,0.63,3,1,-2,4,Pb5O4(CrO4),96-153-4030
3.5958,24.7395,0.78,3,2,-1,4,Pb5O4(CrO4),96-153-4030
3.5844,24.8198,0.07,-1,3,1,4,Pb5O4(CrO4),96-153-4030
3.5752,24.8844,1.66,1,3,1,4,Pb5O4(CrO4),96-153-4030
3.5749,24.8868,4.85,2,2,2,4,Pb5O4(CrO4),96-153-4030
3.571,24.9144,0,-1,1,3,4,Pb5O4(CrO4),96-153-4030
3.5683,24.9332,0.81,3,2,1,4,Pb5O4(CrO4),96-153-4030
3.5466,25.0888,0.36,3,1,2,4,Pb5O4(CrO4),96-153-4030
3.544,25.1069,1.14,1,1,3,4,Pb5O4(CrO4),96-153-4030
3.525,25.245,5.22,4,1,0,4,Pb5O4(CrO4),96-153-4030
3.4443,25.846,7.16,2,3,0,4,Pb5O4(CrO4),96-153-4030
3.3876,26.2866,0.5,4,1,-1,4,Pb5O4(CrO4),96-153-4030
3.357,26.5306,8.2,4,1,1,4,Pb5O4(CrO4),96-153-4030
3.3086,26.9259,0.34,2,3,-1,4,Pb5O4(CrO4),96-153-4030
3.3053,26.9538,16.39,-2,1,3,4,Pb5O4(CrO4),96-153-4030
3.2943,27.0455,26.63,2,3,1,4,Pb5O4(CrO4),96-153-4030
3.2629,27.3107,0.52,2,1,3,4,Pb5O4(CrO4),96-153-4030
3.2303,27.5914,1000,0,3,2,4,Pb5O4(CrO4),96-153-4030
3.22,27.6816,27.47,0,2,3,4,Pb5O4(CrO4),96-153-4030
3.1764,28.0689,2.25,3,2,-2,4,Pb5O4(CrO4),96-153-4030
3.1622,28.1979,0.09,-1,3,2,4,Pb5O4(CrO4),96-153-4030
3.1556,28.2576,0.38,-1,2,3,4,Pb5O4(CrO4),96-153-4030
3.1496,28.3125,0.22,1,3,2,4,Pb5O4(CrO4),96-153-4030
3.1407,28.3947,453.01,4,0,-2,2,Pb5O4(CrO4),96-153-4030
3.1387,28.4129,3.02,3,2,2,4,Pb5O4(CrO4),96-153-4030
3.137,28.429,0.15,1,2,3,4,Pb5O4(CrO4),96-153-4030
3.1237,28.5522,0.87,4,2,0,4,Pb5O4(CrO4),96-153-4030
3.0924,28.8478,457.44,4,0,2,2,Pb5O4(CrO4),96-153-4030
3.0549,29.2094,0.49,3,3,0,4,Pb5O4(CrO4),96-153-4030
3.0329,29.4262,12.53,4,1,-2,4,Pb5O4(CrO4),96-153-4030
3.027,29.4855,10.9,4,2,-1,4,Pb5O4(CrO4),96-153-4030
3.0051,29.7053,3.64,4,2,1,4,Pb5O4(CrO4),96-153-4030
2.9894,29.865,2.6,4,1,2,4,Pb5O4(CrO4),96-153-4030
2.9706,30.058,16.7,2,3,-2,4,Pb5O4(CrO4),96-153-4030
2.9678,30.0873,0.06,-2,2,3,4,Pb5O4(CrO4),96-153-4030
2.9644,30.1223,0.37,3,1,-3,4,Pb5O4(CrO4),96-153-4030
2.9616,30.1511,0.14,3,3,-1,4,Pb5O4(CrO4),96-153-4030
2.958,30.1894,0.51,5,0,0,2,Pb5O4(CrO4),96-153-4030
2.9499,30.274,16.98,2,3,2,4,Pb5O4(CrO4),96-153-4030
2.9462,30.3128,1.53,3,3,1,4,Pb5O4(CrO4),96-153-4030
2.937,30.4105,7.5,2,2,3,4,Pb5O4(CrO4),96-153-4030
2.9193,30.5995,8.77,0,4,0,2,Pb5O4(CrO4),96-153-4030
2.9187,30.6053,0.13,3,1,3,4,Pb5O4(CrO4),96-153-4030
2.8951,30.8613,349.08,0,0,4,2,Pb5O4(CrO4),96-153-4030
2.8674,31.1667,4.35,5,1,0,4,Pb5O4(CrO4),96-153-4030
2.864,31.2048,2.77,1,4,0,4,Pb5O4(CrO4),96-153-4030
2.8504,31.3579,0.37,-1,0,4,2,Pb5O4(CrO4),96-153-4030
2.832,31.5659,0.62,1,0,4,2,Pb5O4(CrO4),96-153-4030
2.8307,31.5814,4.03,0,4,1,4,Pb5O4(CrO4),96-153-4030
2.81,31.8201,7.65,0,1,4,4,Pb5O4(CrO4),96-153-4030
2.7942,32.0053,1.57,5,1,-1,4,Pb5O4(CrO4),96-153-4030
2.7824,32.1445,0.77,-1,4,1,4,Pb5O4(CrO4),96-153-4030
2.7781,32.1955,0.11,1,4,1,4,Pb5O4(CrO4),96-153-4030
2.7727,32.2603,0.17,5,1,1,4,Pb5O4(CrO4),96-153-4030
2.769,32.3034,1.53,-1,1,4,4,Pb5O4(CrO4),96-153-4030
2.7659,32.341,0.36,4,2,-2,4,Pb5O4(CrO4),96-153-4030
2.7523,32.5059,1.31,1,1,4,4,Pb5O4(CrO4),96-153-4030
2.7408,32.6453,0.69,0,3,3,4,Pb5O4(CrO4),96-153-4030
2.7328,32.7445,1.21,4,2,2,4,Pb5O4(CrO4),96-153-4030
2.7153,32.9605,2.34,2,4,0,4,Pb5O4(CrO4),96-153-4030
2.7138,32.9794,0,3,3,-2,4,Pb5O4(CrO4),96-153-4030
2.7137,32.9815,0.03,3,2,-3,4,Pb5O4(CrO4),96-153-4030
2.7116,33.007,3.61,-2,0,4,2,Pb5O4(CrO4),96-153-4030
2.7008,33.1427,0.43,-1,3,3,4,Pb5O4(CrO4),96-153-4030
2.6902,33.2773,0.16,3,3,2,4,Pb5O4(CrO4),96-153-4030
2.6891,33.2913,0.1,1,3,3,4,Pb5O4(CrO4),96-153-4030
2.6807,33.3982,572.32,4,3,0,4,Pb5O4(CrO4),96-153-4030
2.6803,33.4033,4.41,2,0,4,2,Pb5O4(CrO4),96-153-4030
2.6785,33.4274,0.41,3,2,3,4,Pb5O4(CrO4),96-153-4030
2.6526,33.7635,0.31,5,0,-2,2,Pb5O4(CrO4),96-153-4030
2.6473,33.8324,7.63,2,4,-1,4,Pb5O4(CrO4),96-153-4030
2.6413,33.9114,1.83,-2,1,4,4,Pb5O4(CrO4),96-153-4030
2.64,33.9297,0.33,2,4,1,4,Pb5O4(CrO4),96-153-4030
2.6387,33.947,0,5,2,0,4,Pb5O4(CrO4),96-153-4030
2.6243,34.1378,30.1,4,1,-3,4,Pb5O4(CrO4),96-153-4030
2.6188,34.2119,2.15,4,3,-1,4,Pb5O4(CrO4),96-153-4030
2.6161,34.2486,0.06,5,0,2,2,Pb5O4(CrO4),96-153-4030
2.6124,34.2985,2.92,2,1,4,4,Pb5O4(CrO4),96-153-4030
2.6067,34.3761,4.3,0,4,2,4,Pb5O4(CrO4),96-153-4030
2.6046,34.4045,2.99,4,3,1,4,Pb5O4(CrO4),96-153-4030
2.5937,34.5534,0.2,0,2,4,4,Pb5O4(CrO4),96-153-4030
2.5867,34.6505,2.29,5,1,-2,4,Pb5O4(CrO4),96-153-4030
2.5821,34.7138,18.58,4,1,3,4,Pb5O4(CrO4),96-153-4030
2.5802,34.7401,16.48,-2,3,3,4,Pb5O4(CrO4),96-153-4030
2.5705,34.8754,0.1,-1,4,2,4,Pb5O4(CrO4),96-153-4030
2.5643,34.9631,0.41,5,2,1,4,Pb5O4(CrO4),96-153-4030
2.5638,34.9702,1.18,1,4,2,4,Pb5O4(CrO4),96-153-4030
2.5614,35.0032,0.38,-1,2,4,4,Pb5O4(CrO4),96-153-4030
2.5599,35.0247,0,2,3,3,4,Pb5O4(CrO4),96-153-4030
2.5528,35.1249,0.07,5,1,2,4,Pb5O4(CrO4),96-153-4030
2.5481,35.192,0.68,1,2,4,4,Pb5O4(CrO4),96-153-4030
2.5153,35.6664,0,-3,0,4,2,Pb5O4(CrO4),96-153-4030
2.5119,35.7161,0.19,3,4,0,4,Pb5O4(CrO4),96-153-4030
2.478,36.2211,0.15,3,0,4,2,Pb5O4(CrO4),96-153-4030
2.465,36.4197,0.42,6,0,0,2,Pb5O4(CrO4),96-153-4030
2.4644,36.4288,9.97,-2,4,2,4,Pb5O4(CrO4),96-153-4030
2.4593,36.5063,0.02,-2,2,4,4,Pb5O4(CrO4),96-153-4030
2.4593,36.5074,1.08,3,4,-1,4,Pb5O4(CrO4),96-153-4030
2.4589,36.513,2.21,-3,1,4,4,Pb5O4(CrO4),96-153-4030
2.4525,36.6112,11.7,2,4,2,4,Pb5O4(CrO4),96-153-4030
2.4504,36.644,0.01,3,4,1,4,Pb5O4(CrO4),96-153-4030
2.4456,36.7188,0.61,4,2,-3,4,Pb5O4(CrO4),96-153-4030
2.4442,36.7396,1.6,4,3,-2,4,Pb5O4(CrO4),96-153-4030
2.4359,36.8696,0.51,2,2,4,4,Pb5O4(CrO4),96-153-4030
2.424,37.0567,0.93,3,1,4,4,Pb5O4(CrO4),96-153-4030
2.4213,37.1009,0.23,4,3,2,4,Pb5O4(CrO4),96-153-4030
2.415,37.2004,3.16,5,2,-2,4,Pb5O4(CrO4),96-153-4030
2.4118,37.2514,0.25,6,1,0,4,Pb5O4(CrO4),96-153-4030
2.4113,37.2599,1.7,4,2,3,4,Pb5O4(CrO4),96-153-4030
2.4079,37.3136,1.97,3,3,-3,4,Pb5O4(CrO4),96-153-4030
2.3874,37.6469,2.5,5,2,2,4,Pb5O4(CrO4),96-153-4030
2.3833,37.7146,0.27,3,3,3,4,Pb5O4(CrO4),96-153-4030
2.3691,37.949,8.94,6,1,-1,4,Pb5O4(CrO4),96-153-4030
2.3551,38.1832,0.02,5,3,0,4,Pb5O4(CrO4),96-153-4030
2.3533,38.213,0.04,6,1,1,4,Pb5O4(CrO4),96-153-4030
2.3284,38.6383,12.3,0,4,3,4,Pb5O4(CrO4),96-153-4030
2.323,38.732,16.37,0,3,4,4,Pb5O4(CrO4),96-153-4030
2.3203,38.7785,0.06,5,1,-3,4,Pb5O4(CrO4),96-153-4030
2.314,38.8882,2.59,5,3,-1,4,Pb5O4(CrO4),96-153-4030
2.3118,38.9274,0,3,4,-2,4,Pb5O4(CrO4),96-153-4030
2.31,38.9576,0.88,-3,2,4,4,Pb5O4(CrO4),96-153-4030
2.3068,39.0141,0.1,1,5,0,4,Pb5O4(CrO4),96-153-4030
2.3037,39.069,0.29,-1,4,3,4,Pb5O4(CrO4),96-153-4030
2.3017,39.1038,0.06,5,3,1,4,Pb5O4(CrO4),96-153-4030
2.2997,39.1403,0.08,-1,3,4,4,Pb5O4(CrO4),96-153-4030
2.2986,39.1591,10.94,4,0,-4,2,Pb5O4(CrO4),96-153-4030
2.2971,39.1858,0,3,4,2,4,Pb5O4(CrO4),96-153-4030
2.2964,39.1979,0.35,1,4,3,4,Pb5O4(CrO4),96-153-4030
2.2912,39.2908,0.05,4,4,0,4,Pb5O4(CrO4),96-153-4030
2.29,39.3119,0.01,1,3,4,4,Pb5O4(CrO4),96-153-4030
2.2893,39.3247,8.29,0,5,1,4,Pb5O4(CrO4),96-153-4030
2.2838,39.4238,1.06,5,1,3,4,Pb5O4(CrO4),96-153-4030
2.2821,39.4541,7.81,6,0,-2,2,Pb5O4(CrO4),96-153-4030
2.2811,39.4725,1.97,3,2,4,4,Pb5O4(CrO4),96-153-4030
2.2718,39.6403,10.02,0,1,5,4,Pb5O4(CrO4),96-153-4030
2.2709,39.6572,4.01,6,2,0,4,Pb5O4(CrO4),96-153-4030
2.2635,39.7915,0.38,-1,5,1,4,Pb5O4(CrO4),96-153-4030
2.2612,39.8339,0.14,1,5,1,4,Pb5O4(CrO4),96-153-4030
2.2608,39.8416,10.96,4,0,4,2,Pb5O4(CrO4),96-153-4030
2.2553,39.9422,1.96,4,1,-4,4,Pb5O4(CrO4),96-153-4030
2.2542,39.9637,7.53,6,0,2,2,Pb5O4(CrO4),96-153-4030
2.2522,40.0004,5.81,4,4,-1,4,Pb5O4(CrO4),96-153-4030
2.2511,40.0197,0.21,-1,1,5,4,Pb5O4(CrO4),96-153-4030
2.2431,40.1689,3.1,4,4,1,4,Pb5O4(CrO4),96-153-4030
2.2398,40.2302,0.08,1,1,5,4,Pb5O4(CrO4),96-153-4030
[...]
1.9795,45.802,0,4,4,-3,4,Pb5O4(CrO4),96-153-4030
1.9792,45.808,217.15,4,3,-4,4,Pb5O4(CrO4),96-153-4030
1.9783,45.8315,0.41,3,5,2,4,Pb5O4(CrO4),96-153-4030
1.9778,45.8422,0.19,1,5,3,4,Pb5O4(CrO4),96-153-4030
1.9764,45.8774,0.26,-1,3,5,4,Pb5O4(CrO4),96-153-4030
1.9745,45.924,0.01,4,5,0,4,Pb5O4(CrO4),96-153-4030
1.9744,45.9279,0.3,2,4,4,4,Pb5O4(CrO4),96-153-4030
1.974,45.9369,0.07,7,0,2,2,Pb5O4(CrO4),96-153-4030
1.9709,46.013,4.73,6,2,-3,4,Pb5O4(CrO4),96-153-4030
1.9688,46.0661,0.3,1,3,5,4,Pb5O4(CrO4),96-153-4030
1.9687,46.068,0.31,6,3,-2,4,Pb5O4(CrO4),96-153-4030
1.9673,46.1021,1.86,7,1,-2,4,Pb5O4(CrO4),96-153-4030
1.9651,46.1557,2.27,5,2,-4,4,Pb5O4(CrO4),96-153-4030
1.9634,46.199,0.25,7,2,-1,4,Pb5O4(CrO4),96-153-4030
1.9632,46.2046,2.98,5,4,-2,4,Pb5O4(CrO4),96-153-4030
1.9616,46.2451,0.17,3,2,5,4,Pb5O4(CrO4),96-153-4030
1.9612,46.2544,0.57,4,4,3,4,Pb5O4(CrO4),96-153-4030
1.9549,46.4104,229.44,4,3,4,4,Pb5O4(CrO4),96-153-4030
1.9529,46.4615,0.66,7,2,1,4,Pb5O4(CrO4),96-153-4030
1.9507,46.5184,0.67,6,3,2,4,Pb5O4(CrO4),96-153-4030
1.9503,46.5284,1.04,-4,1,5,4,Pb5O4(CrO4),96-153-4030
1.9494,46.5509,0.05,4,5,-1,4,Pb5O4(CrO4),96-153-4030
1.9483,46.5793,3.24,5,4,2,4,Pb5O4(CrO4),96-153-4030
1.9464,46.6269,1.76,7,1,2,4,Pb5O4(CrO4),96-153-4030
1.9462,46.6322,109.52,0,6,0,2,Pb5O4(CrO4),96-153-4030
1.944,46.688,0.02,6,2,3,4,Pb5O4(CrO4),96-153-4030
1.9435,46.7002,0.16,4,5,1,4,Pb5O4(CrO4),96-153-4030
1.9355,46.9034,0.82,5,2,4,4,Pb5O4(CrO4),96-153-4030
1.9333,46.9613,3.54,-2,5,3,4,Pb5O4(CrO4),96-153-4030
1.9301,47.0449,8.43,0,0,6,2,Pb5O4(CrO4),96-153-4030
1.9295,47.0583,0.21,1,6,0,4,Pb5O4(CrO4),96-153-4030
1.9291,47.07,0.18,-2,3,5,4,Pb5O4(CrO4),96-153-4030
1.9247,47.1836,0.08,2,5,3,4,Pb5O4(CrO4),96-153-4030
1.9213,47.2715,0.04,4,1,5,4,Pb5O4(CrO4),96-153-4030
1.9193,47.3257,1.02,0,6,1,4,Pb5O4(CrO4),96-153-4030
1.918,47.3576,0.01,-1,0,6,2,Pb5O4(CrO4),96-153-4030
1.9149,47.4395,6.27,2,3,5,4,Pb5O4(CrO4),96-153-4030
1.9096,47.5785,0.01,1,0,6,2,Pb5O4(CrO4),96-153-4030
1.9055,47.6877,0.65,-3,4,4,4,Pb5O4(CrO4),96-153-4030
1.9042,47.7225,0.18,0,1,6,4,Pb5O4(CrO4),96-153-4030
1.904,47.7287,1.07,-1,6,1,4,Pb5O4(CrO4),96-153-4030
1.9026,47.7654,0.01,1,6,1,4,Pb5O4(CrO4),96-153-4030
1.8929,48.0267,0,6,0,-4,2,Pb5O4(CrO4),96-153-4030
1.8927,48.0318,0.19,-1,1,6,4,Pb5O4(CrO4),96-153-4030
1.8892,48.1264,0.11,3,4,4,4,Pb5O4(CrO4),96-153-4030
1.8885,48.1436,0.01,7,2,-2,4,Pb5O4(CrO4),96-153-4030
1.8846,48.2504,0,1,1,6,4,Pb5O4(CrO4),96-153-4030
1.8834,48.2842,6.27,6,4,0,4,Pb5O4(CrO4),96-153-4030
1.8821,48.3193,6.43,2,6,0,4,Pb5O4(CrO4),96-153-4030
1.8753,48.5042,0.87,-2,0,6,2,Pb5O4(CrO4),96-153-4030
1.8741,48.5391,1.14,4,5,-2,4,Pb5O4(CrO4),96-153-4030
1.8735,48.5562,13.33,-4,2,5,4,Pb5O4(CrO4),96-153-4030
1.87,48.6516,0.39,7,2,2,4,Pb5O4(CrO4),96-153-4030
1.8685,48.694,0.35,6,1,-4,4,Pb5O4(CrO4),96-153-4030
1.8637,48.8281,0.02,4,5,2,4,Pb5O4(CrO4),96-153-4030
1.8628,48.8519,0.07,6,4,-1,4,Pb5O4(CrO4),96-153-4030
1.8612,48.8967,0.29,6,0,4,2,Pb5O4(CrO4),96-153-4030
1.8597,48.9374,0.48,2,0,6,2,Pb5O4(CrO4),96-153-4030
1.859,48.9587,21.01,2,6,-1,4,Pb5O4(CrO4),96-153-4030
1.8576,48.9987,0.24,-3,5,3,4,Pb5O4(CrO4),96-153-4030
1.8569,49.0173,0,7,3,0,4,Pb5O4(CrO4),96-153-4030
1.8564,49.0306,0.06,2,6,1,4,Pb5O4(CrO4),96-153-4030
1.8551,49.0677,1.76,6,4,1,4,Pb5O4(CrO4),96-153-4030
1.8551,49.0681,0.02,-3,3,5,4,Pb5O4(CrO4),96-153-4030
1.8516,49.1665,0.45,-2,1,6,4,Pb5O4(CrO4),96-153-4030
1.8487,49.2483,104.62,8,0,0,2,Pb5O4(CrO4),96-153-4030
1.8478,49.2761,8.68,4,2,5,4,Pb5O4(CrO4),96-153-4030
1.8462,49.3215,0.29,3,5,3,4,Pb5O4(CrO4),96-153-4030
1.8447,49.3616,3.17,0,6,2,4,Pb5O4(CrO4),96-153-4030
1.8439,49.3846,0.04,6,3,-3,4,Pb5O4(CrO4),96-153-4030
1.8434,49.399,0.03,7,1,-3,4,Pb5O4(CrO4),96-153-4030
1.8392,49.5198,0.06,5,3,-4,4,Pb5O4(CrO4),96-153-4030
1.8388,49.532,0.2,5,4,-3,4,Pb5O4(CrO4),96-153-4030
1.838,49.5552,0.65,6,1,4,4,Pb5O4(CrO4),96-153-4030
1.8378,49.5609,0.54,7,3,-1,4,Pb5O4(CrO4),96-153-4030
1.8366,49.5955,0,2,1,6,4,Pb5O4(CrO4),96-153-4030
1.8363,49.6046,0.13,3,3,5,4,Pb5O4(CrO4),96-153-4030
1.833,49.7004,0.94,5,5,0,4,Pb5O4(CrO4),96-153-4030
1.8325,49.7133,4.66,0,2,6,4,Pb5O4(CrO4),96-153-4030
1.8318,49.7345,0.12,-1,6,2,4,Pb5O4(CrO4),96-153-4030
1.8293,49.8056,0.07,1,6,2,4,Pb5O4(CrO4),96-153-4030
1.8292,49.81,0.1,7,3,1,4,Pb5O4(CrO4),96-153-4030
1.826,49.9033,0.91,8,1,0,4,Pb5O4(CrO4),96-153-4030
1.8222,50.0135,2.17,-1,2,6,4,Pb5O4(CrO4),96-153-4030
1.8218,50.0249,6.23,6,3,3,4,Pb5O4(CrO4),96-153-4030
1.8205,50.0649,0.45,5,4,3,4,Pb5O4(CrO4),96-153-4030
1.8177,50.1453,0.91,7,1,3,4,Pb5O4(CrO4),96-153-4030
1.8177,50.1464,1.87,0,5,4,4,Pb5O4(CrO4),96-153-4030
1.8165,50.1819,0.42,5,1,-5,4,Pb5O4(CrO4),96-153-4030
1.815,50.2256,0.57,1,2,6,4,Pb5O4(CrO4),96-153-4030
1.8149,50.2295,0.22,5,3,4,4,Pb5O4(CrO4),96-153-4030
1.8144,50.2444,0.24,0,4,5,4,Pb5O4(CrO4),96-153-4030
1.8134,50.2738,0.15,5,5,-1,4,Pb5O4(CrO4),96-153-4030
1.8102,50.3682,0,3,6,0,4,Pb5O4(CrO4),96-153-4030
1.8084,50.4223,8.76,8,1,-1,4,Pb5O4(CrO4),96-153-4030
1.8077,50.4419,0.21,-3,0,6,2,Pb5O4(CrO4),96-153-4030
1.8075,50.45,0.02,5,5,1,4,Pb5O4(CrO4),96-153-4030
1.8065,50.4798,1.02,-1,5,4,4,Pb5O4(CrO4),96-153-4030
1.806,50.4953,4.19,4,4,-4,4,Pb5O4(CrO4),96-153-4030
1.8038,50.5598,0.1,-1,4,5,4,Pb5O4(CrO4),96-153-4030
1.8018,50.6204,0.21,1,5,4,4,Pb5O4(CrO4),96-153-4030
1.8006,50.6563,4.24,6,2,-4,4,Pb5O4(CrO4),96-153-4030
1.799,50.7033,2.41,8,1,1,4,Pb5O4(CrO4),96-153-4030
1.798,50.7352,0.81,1,4,5,4,Pb5O4(CrO4),96-153-4030
1.7979,50.737,0.75,6,4,-2,4,Pb5O4(CrO4),96-153-4030
1.7922,50.9109,3.2,-2,6,2,4,Pb5O4(CrO4),96-153-4030
1.7902,50.971,0.79,3,6,-1,4,Pb5O4(CrO4),96-153-4030
1.7876,51.0506,6.11,2,6,2,4,Pb5O4(CrO4),96-153-4030
1.7874,51.0557,2.62,4,4,4,4,Pb5O4(CrO4),96-153-4030
1.7873,51.0595,0.73,5,1,5,4,Pb5O4(CrO4),96-153-4030
1.7869,51.0725,0.01,3,0,6,2,Pb5O4(CrO4),96-153-4030
1.7868,51.0757,0.02,3,6,1,4,Pb5O4(CrO4),96-153-4030
1.7865,51.0857,0.3,-3,1,6,4,Pb5O4(CrO4),96-153-4030
1.7855,51.1155,0.52,-2,2,6,4,Pb5O4(CrO4),96-153-4030
1.7842,51.1563,0,6,4,2,4,Pb5O4(CrO4),96-153-4030
1.7782,51.3415,0.43,7,2,-3,4,Pb5O4(CrO4),96-153-4030
1.776,51.4096,0.13,7,3,-2,4,Pb5O4(CrO4),96-153-4030
1.7733,51.4933,1.55,6,2,4,4,Pb5O4(CrO4),96-153-4030
1.772,51.5326,0.19,2,2,6,4,Pb5O4(CrO4),96-153-4030
1.7699,51.5981,1.11,8,0,-2,2,Pb5O4(CrO4),96-153-4030
1.7696,51.6093,1.02,-2,5,4,4,Pb5O4(CrO4),96-153-4030
1.7676,51.6707,2.93,-2,4,5,4,Pb5O4(CrO4),96-153-4030
1.7663,51.7107,0.58,3,1,6,4,Pb5O4(CrO4),96-153-4030
1.7644,51.7707,4.33,4,5,-3,4,Pb5O4(CrO4),96-153-4030
1.7634,51.8029,0.05,-4,3,5,4,Pb5O4(CrO4),96-153-4030
1.7625,51.832,0.01,8,2,0,4,Pb5O4(CrO4),96-153-4030
1.7608,51.8857,0,2,5,4,4,Pb5O4(CrO4),96-153-4030
1.7605,51.8939,0,7,3,2,4,Pb5O4(CrO4),96-153-4030
1.7567,52.0157,0.75,2,4,5,4,Pb5O4(CrO4),96-153-4030
1.7551,52.0675,0.33,7,2,3,4,Pb5O4(CrO4),96-153-4030
1.7539,52.1031,0.07,5,2,-5,4,Pb5O4(CrO4),96-153-4030
1.7528,52.1385,0.65,5,5,-2,4,Pb5O4(CrO4),96-153-4030
1.7525,52.15,1.04,8,0,2,2,Pb5O4(CrO4),96-153-4030
1.7514,52.184,3.01,4,5,3,4,Pb5O4(CrO4),96-153-4030
1.7499,52.2317,0.42,8,1,-2,4,Pb5O4(CrO4),96-153-4030
1.7467,52.3371,0,8,2,-1,4,Pb5O4(CrO4),96-153-4030
1.7422,52.4813,0.01,5,5,2,4,Pb5O4(CrO4),96-153-4030
1.7419,52.4901,0.17,4,3,5,4,Pb5O4(CrO4),96-153-4030
1.7382,52.6108,1.2,8,2,1,4,Pb5O4(CrO4),96-153-4030
1.7378,52.6245,0.96,0,6,3,4,Pb5O4(CrO4),96-153-4030
1.7331,52.7788,0.75,8,1,2,4,Pb5O4(CrO4),96-153-4030
1.7308,52.852,0.83,3,6,-2,4,Pb5O4(CrO4),96-153-4030
1.7291,52.9081,124.01,0,3,6,4,Pb5O4(CrO4),96-153-4030
1.7276,52.9578,0.25,5,2,5,4,Pb5O4(CrO4),96-153-4030
1.7275,52.9637,0.06,-1,6,3,4,Pb5O4(CrO4),96-153-4030
1.7269,52.9834,1.2,-3,2,6,4,Pb5O4(CrO4),96-153-4030
1.7247,53.056,0.23,3,6,2,4,Pb5O4(CrO4),96-153-4030
1.7244,53.0656,0.64,1,6,3,4,Pb5O4(CrO4),96-153-4030
1.7231,53.1083,55.9,-4,0,6,2,Pb5O4(CrO4),96-153-4030
1.7222,53.139,0.06,4,6,0,4,Pb5O4(CrO4),96-153-4030
1.7207,53.1872,0,7,0,-4,2,Pb5O4(CrO4),96-153-4030
1.7205,53.1952,0.01,-1,3,6,4,Pb5O4(CrO4),96-153-4030
1.7144,53.3982,0.68,1,3,6,4,Pb5O4(CrO4),96-153-4030
1.7116,53.4939,0.18,7,4,0,4,Pb5O4(CrO4),96-153-4030
1.7114,53.4987,1.56,-3,5,4,4,Pb5O4(CrO4),96-153-4030
1.7102,53.5416,0.05,-3,4,5,4,Pb5O4(CrO4),96-153-4030
1.7087,53.5926,1.64,3,2,6,4,Pb5O4(CrO4),96-153-4030
1.7054,53.7029,1.19,4,6,-1,4,Pb5O4(CrO4),96-153-4030
1.7046,53.7293,6.2,-4,1,6,4,Pb5O4(CrO4),96-153-4030
1.7023,53.8076,0.27,7,1,-4,4,Pb5O4(CrO4),96-153-4030
1.7022,53.8108,4.08,6,3,-4,4,Pb5O4(CrO4),96-153-4030
1.7015,53.8374,1.47,4,6,1,4,Pb5O4(CrO4),96-153-4030
1.7014,53.8391,3.67,6,4,-3,4,Pb5O4(CrO4),96-153-4030
1.6996,53.9026,1.41,3,5,4,4,Pb5O4(CrO4),96-153-4030
1.6991,53.9183,59.75,4,0,6,2,Pb5O4(CrO4),96-153-4030
1.6977,53.9663,0.73,5,4,-4,4,Pb5O4(CrO4),96-153-4030
1.6966,54.0049,0,7,4,-1,4,Pb5O4(CrO4),96-153-4030
1.6954,54.046,0.14,3,4,5,4,Pb5O4(CrO4),96-153-4030
1.6953,54.0481,0.62,6,5,0,4,Pb5O4(CrO4),96-153-4030
1.6946,54.0729,0.44,-2,6,3,4,Pb5O4(CrO4),96-153-4030
1.6938,54.1009,1.65,8,2,-2,4,Pb5O4(CrO4),96-153-4030
1.693,54.1303,0.07,7,0,4,2,Pb5O4(CrO4),96-153-4030
1.6898,54.2393,1,7,4,1,4,Pb5O4(CrO4),96-153-4030
1.6895,54.251,3.23,-2,3,6,4,Pb5O4(CrO4),96-153-4030
1.6888,54.2737,11.21,2,6,3,4,Pb5O4(CrO4),96-153-4030
1.6847,54.4187,3.78,6,1,-5,4,Pb5O4(CrO4),96-153-4030
1.684,54.4417,0.04,6,4,3,4,Pb5O4(CrO4),96-153-4030
1.6833,54.4678,0.01,7,3,-3,4,Pb5O4(CrO4),96-153-4030
1.6814,54.5329,3.23,4,1,6,4,Pb5O4(CrO4),96-153-4030
1.6803,54.5721,0.34,6,5,-1,4,Pb5O4(CrO4),96-153-4030
1.6791,54.6135,7.18,6,3,4,4,Pb5O4(CrO4),96-153-4030
1.6785,54.6345,0.42,5,4,4,4,Pb5O4(CrO4),96-153-4030
1.6785,54.635,0,8,2,2,4,Pb5O4(CrO4),96-153-4030
1.678,54.6512,3.1,2,3,6,4,Pb5O4(CrO4),96-153-4030
1.6754,54.7434,0.25,7,1,4,4,Pb5O4(CrO4),96-153-4030
1.6746,54.7716,0.1,6,5,1,4,Pb5O4(CrO4),96-153-4030
1.6699,54.9387,0.01,8,3,0,4,Pb5O4(CrO4),96-153-4030
1.6636,55.165,0.26,7,3,3,4,Pb5O4(CrO4),96-153-4030
1.6627,55.1992,0.6,5,3,-5,4,Pb5O4(CrO4),96-153-4030
1.6626,55.2015,0.1,5,5,-3,4,Pb5O4(CrO4),96-153-4030
1.6615,55.2415,0.15,8,1,-3,4,Pb5O4(CrO4),96-153-4030
1.6576,55.3814,0.08,1,7,0,4,Pb5O4(CrO4),96-153-4030
1.6568,55.4134,0.02,6,1,5,4,Pb5O4(CrO4),96-153-4030
1.6565,55.4241,0.22,8,3,-1,4,Pb5O4(CrO4),96-153-4030
1.6543,55.5024,111.15,4,6,-2,4,Pb5O4(CrO4),96-153-4030
1.6526,55.5636,0.12,-4,2,6,4,Pb5O4(CrO4),96-153-4030
1.6511,55.6194,1.17,0,7,1,4,Pb5O4(CrO4),96-153-4030
1.6505,55.6401,1.27,7,2,-4,4,Pb5O4(CrO4),96-153-4030
1.6492,55.6873,0.63,8,3,1,4,Pb5O4(CrO4),96-153-4030
1.649,55.6956,0.06,5,5,3,4,Pb5O4(CrO4),96-153-4030
1.6476,55.7486,0.11,7,4,-2,4,Pb5O4(CrO4),96-153-4030
1.6471,55.7653,114.66,4,6,2,4,Pb5O4(CrO4),96-153-4030
1.6445,55.8623,3.88,0,5,5,4,Pb5O4(CrO4),96-153-4030
1.6433,55.906,0.33,9,0,0,2,Pb5O4(CrO4),96-153-4030
1.6429,55.9207,0.03,-3,6,3,4,Pb5O4(CrO4),96-153-4030
1.6413,55.9789,0.11,-1,7,1,4,Pb5O4(CrO4),96-153-4030
1.6405,56.0116,0.74,1,7,1,4,Pb5O4(CrO4),96-153-4030
1.6402,56.0212,0.04,5,3,5,4,Pb5O4(CrO4),96-153-4030
1.64,56.0304,0.55,8,1,3,4,Pb5O4(CrO4),96-153-4030
1.6395,56.0458,0.07,-3,3,6,4,Pb5O4(CrO4),96-153-4030
1.6382,56.0954,0.1,4,5,-4,4,Pb5O4(CrO4),96-153-4030
1.638,56.1044,1.11,0,1,7,4,Pb5O4(CrO4),96-153-4030
1.6375,56.1207,8.32,-4,4,5,4,Pb5O4(CrO4),96-153-4030
1.6366,56.1554,0.09,-1,5,5,4,Pb5O4(CrO4),96-153-4030
1.6352,56.2069,0,7,4,2,4,Pb5O4(CrO4),96-153-4030
1.635,56.215,0.47,3,6,3,4,Pb5O4(CrO4),96-153-4030
1.6344,56.2378,0.12,6,2,-5,4,Pb5O4(CrO4),96-153-4030
1.6323,56.3185,0.08,1,5,5,4,Pb5O4(CrO4),96-153-4030
1.6322,56.3202,1.94,6,5,-2,4,Pb5O4(CrO4),96-153-4030
1.6314,56.3495,0.03,4,2,6,4,Pb5O4(CrO4),96-153-4030
1.631,56.3641,0,-1,1,7,4,Pb5O4(CrO4),96-153-4030
1.6292,56.434,0.13,-5,0,6,2,Pb5O4(CrO4),96-153-4030
1.6273,56.506,0.41,9,1,0,4,Pb5O4(CrO4),96-153-4030
1.6273,56.507,3.08,2,7,0,4,Pb5O4(CrO4),96-153-4030
1.626,56.5554,1.52,7,2,4,4,Pb5O4(CrO4),96-153-4030
1.6258,56.5611,0.42,5,6,0,4,Pb5O4(CrO4),96-153-4030
1.625,56.5919,0.83,1,1,7,4,Pb5O4(CrO4),96-153-4030
1.6244,56.6169,0,4,5,4,4,Pb5O4(CrO4),96-153-4030
1.6239,56.6326,0.19,3,3,6,4,Pb5O4(CrO4),96-153-4030
1.6219,56.7106,1.22,6,5,2,4,Pb5O4(CrO4),96-153-4030
1.6203,56.7718,6.15,4,4,5,4,Pb5O4(CrO4),96-153-4030
1.6152,56.9664,0,9,1,-1,4,Pb5O4(CrO4),96-153-4030
1.6151,56.9691,87.35,0,6,4,4,Pb5O4(CrO4),96-153-4030
1.6136,57.0304,2.32,-5,1,6,4,Pb5O4(CrO4),96-153-4030
1.6132,57.0431,6.6,8,2,-3,4,Pb5O4(CrO4),96-153-4030
1.6123,57.0806,0.06,2,7,-1,4,Pb5O4(CrO4),96-153-4030
1.6121,57.0858,0.08,5,6,-1,4,Pb5O4(CrO4),96-153-4030
1.6112,57.1226,99.31,8,3,-2,4,Pb5O4(CrO4),96-153-4030
3.505,25.3913,1000,1,1,0,4,PbO2,96-900-7544
2.7963,31.9805,926.24,1,0,1,8,PbO2,96-900-7544
2.4784,36.2155,289.55,2,0,0,4,PbO2,96-900-7544
2.4355,36.8767,13.74,1,1,1,8,PbO2,96-900-7544
2.2167,40.6678,5.04,1,2,0,8,PbO2,96-900-7544
1.8547,49.0781,650.6,2,1,1,16,PbO2,96-900-7544
1.7525,52.1497,143.74,2,2,0,4,PbO2,96-900-7544
1.6933,54.1183,71.02,0,0,2,2,PbO2,96-900-7544
1.5675,58.8687,154.11,1,3,0,8,PbO2,96-900-7544
1.5564,59.3275,0.55,2,2,1,8,PbO2,96-900-7544
1.5247,60.6913,156.59,1,1,2,8,PbO2,96-900-7544
1.485,62.4948,169.51,3,0,1,8,PbO2,96-900-7544
1.4225,65.5732,0.57,3,1,1,16,PbO2,96-900-7544
1.3981,66.864,91.48,2,0,2,8,PbO2,96-900-7544
1.3748,68.1547,0.13,2,3,0,8,PbO2,96-900-7544
1.3456,69.8417,1,2,1,2,16,PbO2,96-900-7544
1.2738,74.4172,133.05,3,2,1,16,PbO2,96-900-7544
1.2392,76.8676,35.69,4,0,0,4,PbO2,96-900-7544
1.2177,78.4797,73.69,2,2,2,8,PbO2,96-900-7544
1.2022,79.6942,0.62,1,4,0,8,PbO2,96-900-7544
1.1683,82.4956,33.44,3,3,0,4,PbO2,96-900-7544
1.1503,84.0814,100.83,3,1,2,16,PbO2,96-900-7544
1.1329,85.674,102.1,4,1,1,16,PbO2,96-900-7544
1.1084,88.0514,47.35,2,4,0,8,PbO2,96-900-7544
1.1045,88.4453,0.02,3,3,1,8,PbO2,96-900-7544
1.1007,88.8279,43.61,0,1,3,8,PbO2,96-900-7544
1.0745,91.5955,0.33,1,1,3,8,PbO2,96-900-7544
1.0673,92.3948,0.08,3,2,2,16,PbO2,96-900-7544
1.0534,93.9835,0.36,4,2,1,16,PbO2,96-900-7544
1.0059,99.9473,79.09,2,1,3,16,PbO2,96-900-7544
8.5442,10.345,5,NA,NA,NA,NA,Hydroxypyromorphite,00-086-0236
5.60491,15.7987,11,NA,NA,NA,NA,Hydroxypyromorphite,00-086-0236
4.93299,17.9673,54,NA,NA,NA,NA,Hydroxypyromorphite,00-086-0236
4.2721,20.7755,260.2,NA,NA,NA,NA,Hydroxypyromorphite,00-086-0236
4.109,21.6099,259.2,NA,NA,NA,NA,Hydroxypyromorphite,00-086-0236
3.713,23.9471,61,NA,NA,NA,NA,Hydroxypyromorphite,00-086-0236
3.713,23.9471,61,NA,NA,NA,NA,Hydroxypyromorphite,00-086-0236
3.40534,26.1473,261.2,NA,NA,NA,NA,Hydroxypyromorphite,00-086-0236
3.22941,27.5991,287.2,NA,NA,NA,NA,Hydroxypyromorphite,00-086-0236
2.96656,30.0999,1000,NA,NA,NA,NA,Hydroxypyromorphite,00-086-0236
2.96656,30.0999,1000,NA,NA,NA,NA,Hydroxypyromorphite,00-086-0236
2.84806,31.3838,311.3,NA,NA,NA,NA,Hydroxypyromorphite,00-086-0236
2.80245,31.9081,8,NA,NA,NA,NA,Hydroxypyromorphite,00-086-0236
2.65919,33.6769,3,NA,NA,NA,NA,Hydroxypyromorphite,00-086-0236
2.46649,36.3965,12,NA,NA,NA,NA,Hydroxypyromorphite,00-086-0236
2.4367,36.8573,3,NA,NA,NA,NA,Hydroxypyromorphite,00-086-0236
2.37756,37.8085,2,NA,NA,NA,NA,Hydroxypyromorphite,00-086-0236
2.36974,37.938,7,NA,NA,NA,NA,Hydroxypyromorphite,00-086-0236
2.34075,38.4261,3,NA,NA,NA,NA,Hydroxypyromorphite,00-086-0236
2.25981,39.8596,35,NA,NA,NA,NA,Hydroxypyromorphite,00-086-0236
2.25981,39.8596,35,NA,NA,NA,NA,Hydroxypyromorphite,00-086-0236
2.21241,40.7511,82,NA,NA,NA,NA,Hydroxypyromorphite,00-086-0236
2.13605,42.2764,35,NA,NA,NA,NA,Hydroxypyromorphite,00-086-0236
2.05451,44.0401,202.2,NA,NA,NA,NA,Hydroxypyromorphite,00-086-0236
2.05451,44.0401,202.2,NA,NA,NA,NA,Hydroxypyromorphite,00-086-0236
1.99757,45.3642,111.1,NA,NA,NA,NA,Hydroxypyromorphite,00-086-0236
1.96459,46.1694,178.1,NA,NA,NA,NA,Hydroxypyromorphite,00-086-0236
1.96018,46.2793,147.1,NA,NA,NA,NA,Hydroxypyromorphite,00-086-0236
1.89525,47.9624,116.1,NA,NA,NA,NA,Hydroxypyromorphite,00-086-0236
1.8645,48.8044,126.1,NA,NA,NA,NA,Hydroxypyromorphite,00-086-0236
1.8565,49.0286,88,NA,NA,NA,NA,Hydroxypyromorphite,00-086-0236
1.85152,49.1692,204.2,NA,NA,NA,NA,Hydroxypyromorphite,00-086-0236
1.81417,50.2509,1,NA,NA,NA,NA,Hydroxypyromorphite,00-086-0236
1.80837,50.4233,1,NA,NA,NA,NA,Hydroxypyromorphite,00-086-0236
1.74719,52.3199,1,NA,NA,NA,NA,Hydroxypyromorphite,00-086-0236
1.73753,52.6331,8,NA,NA,NA,NA,Hydroxypyromorphite,00-086-0236
1.73344,52.7668,6,NA,NA,NA,NA,Hydroxypyromorphite,00-086-0236
1.71177,53.4876,2,NA,NA,NA,NA,Hydroxypyromorphite,00-086-0236
1.70267,53.7964,23,NA,NA,NA,NA,Hydroxypyromorphite,00-086-0236
1.66622,55.0717,14,NA,NA,NA,NA,Hydroxypyromorphite,00-086-0236
1.64433,55.8685,5,NA,NA,NA,NA,Hydroxypyromorphite,00-086-0236
1.6147,56.9863,33,NA,NA,NA,NA,Hydroxypyromorphite,00-086-0236
1.60949,57.1878,64,NA,NA,NA,NA,Hydroxypyromorphite,00-086-0236
1.60545,57.345,60,NA,NA,NA,NA,Hydroxypyromorphite,00-086-0236
1.57783,58.4449,1,NA,NA,NA,NA,Hydroxypyromorphite,00-086-0236
1.55526,59.3773,57,NA,NA,NA,NA,Hydroxypyromorphite,00-086-0236
1.55232,59.501,54,NA,NA,NA,NA,Hydroxypyromorphite,00-086-0236
1.53671,60.1675,49,NA,NA,NA,NA,Hydroxypyromorphite,00-086-0236
1.53458,60.2596,29,NA,NA,NA,NA,Hydroxypyromorphite,00-086-0236
1.50348,61.6402,78,NA,NA,NA,NA,Hydroxypyromorphite,00-086-0236
1.50348,61.6402,78,NA,NA,NA,NA,Hydroxypyromorphite,00-086-0236
1.48929,62.2927,1,NA,NA,NA,NA,Hydroxypyromorphite,00-086-0236
1.48328,62.5735,3,NA,NA,NA,NA,Hydroxypyromorphite,00-086-0236
1.48073,62.6934,2,NA,NA,NA,NA,Hydroxypyromorphite,00-086-0236
1.46326,63.5287,1,NA,NA,NA,NA,Hydroxypyromorphite,00-086-0236
1.42213,65.5923,9,NA,NA,NA,NA,Hydroxypyromorphite,00-086-0236
1.41823,65.7954,5,NA,NA,NA,NA,Hydroxypyromorphite,00-086-0236
1.40122,66.6976,12,NA,NA,NA,NA,Hydroxypyromorphite,00-086-0236
1.39854,66.8422,6,NA,NA,NA,NA,Hydroxypyromorphite,00-086-0236
1.38017,67.8516,2,NA,NA,NA,NA,Hydroxypyromorphite,00-086-0236
1.36966,68.4441,12,NA,NA,NA,NA,Hydroxypyromorphite,00-086-0236
1.34933,69.6226,36,NA,NA,NA,NA,Hydroxypyromorphite,00-086-0236
1.3479,69.7071,28,NA,NA,NA,NA,Hydroxypyromorphite,00-086-0236
1.34552,69.8483,42,NA,NA,NA,NA,Hydroxypyromorphite,00-086-0236
1.32959,70.8098,25,NA,NA,NA,NA,Hydroxypyromorphite,00-086-0236
1.31556,71.6808,56,NA,NA,NA,NA,Hydroxypyromorphite,00-086-0236
1.31379,71.7923,25,NA,NA,NA,NA,Hydroxypyromorphite,00-086-0236
1.30428,72.3982,25,NA,NA,NA,NA,Hydroxypyromorphite,00-086-0236
1.28378,73.7433,64,NA,NA,NA,NA,Hydroxypyromorphite,00-086-0236
1.28378,73.7433,64,NA,NA,NA,NA,Hydroxypyromorphite,00-086-0236
1.27234,74.518,1,NA,NA,NA,NA,Hydroxypyromorphite,00-086-0236
1.25845,75.4832,1,NA,NA,NA,NA,Hydroxypyromorphite,00-086-0236
1.23767,76.98,2,NA,NA,NA,NA,Hydroxypyromorphite,00-086-0236
1.23324,77.3077,24,NA,NA,NA,NA,Hydroxypyromorphite,00-086-0236
1.23093,77.4798,14,NA,NA,NA,NA,Hydroxypyromorphite,00-086-0236
1.23093,77.4798,14,NA,NA,NA,NA,Hydroxypyromorphite,00-086-0236
1.22487,77.9354,7,NA,NA,NA,NA,Hydroxypyromorphite,00-086-0236
1.22167,78.1784,5,NA,NA,NA,NA,Hydroxypyromorphite,00-086-0236
1.21835,78.4323,19,NA,NA,NA,NA,Hydroxypyromorphite,00-086-0236
1.20443,79.5173,1,NA,NA,NA,NA,Hydroxypyromorphite,00-086-0236
1.20046,79.8329,19,NA,NA,NA,NA,Hydroxypyromorphite,00-086-0236
1.19742,80.0765,24,NA,NA,NA,NA,Hydroxypyromorphite,00-086-0236
1.18378,81.1905,18,NA,NA,NA,NA,Hydroxypyromorphite,00-086-0236
1.1828,81.2719,17,NA,NA,NA,NA,Hydroxypyromorphite,00-086-0236
1.17037,82.3205,2,NA,NA,NA,NA,Hydroxypyromorphite,00-086-0236
1.17037,82.3205,2,NA,NA,NA,NA,Hydroxypyromorphite,00-086-0236
1.15955,83.2586,22,NA,NA,NA,NA,Hydroxypyromorphite,00-086-0236
1.153,83.8385,10,NA,NA,NA,NA,Hydroxypyromorphite,00-086-0236
1.13511,85.4705,1,NA,NA,NA,NA,Hydroxypyromorphite,00-086-0236
1.1317,85.7899,12,NA,NA,NA,NA,Hydroxypyromorphite,00-086-0236
1.12878,86.0657,6,NA,NA,NA,NA,Hydroxypyromorphite,00-086-0236
1.12016,86.8917,1,NA,NA,NA,NA,Hydroxypyromorphite,00-086-0236
1.11878,87.0257,1,NA,NA,NA,NA,Hydroxypyromorphite,00-086-0236
1.1062,88.2693,12,NA,NA,NA,NA,Hydroxypyromorphite,00-086-0236
1.10383,88.5083,7,NA,NA,NA,NA,Hydroxypyromorphite,00-086-0236
1.10217,88.6765,6,NA,NA,NA,NA,Hydroxypyromorphite,00-086-0236
1.09705,89.2003,9,NA,NA,NA,NA,Hydroxypyromorphite,00-086-0236
1.09474,89.439,5,NA,NA,NA,NA,Hydroxypyromorphite,00-086-0236
1.09474,89.439,5,NA,NA,NA,NA,Hydroxypyromorphite,00-086-0236