File: _site/posts/2021-06-29-peak-detection-for-qualitative-xrd-analysis-in-r/XRD_Ortho_P_pH7.5_DIC5 copy.txt
 10.0000       0.00
 10.0500       0.05
 10.1000       0.11
 10.1500       0.10
 10.2000       1.99
 10.2500       4.93
 10.3000       8.07
 10.3500      10.83
 10.4000      12.42
 10.4500      12.31
 10.5000      11.75
 10.5500      10.97
 10.6000      10.01
 10.6500       9.11
 10.7000       7.83
 10.7500       5.78
 10.8000       3.92
 10.8500       2.21
 10.9000       0.93
 10.9500       0.29
 11.0000       0.00
 11.0500       0.02
 11.1000       0.77
 11.1500       1.80
 11.2000       2.97
 11.2500       3.83
 11.3000       3.96
 11.3500       3.69
 11.4000       3.45
 11.4500       3.19
 11.5000       3.10
 11.5500       2.79
 11.6000       1.84
 11.6500       0.76
 11.7000       0.34
 11.7500       1.02
 11.8000       2.79
 11.8500       4.55
 11.9000       4.93
 11.9500       3.63
 12.0000       1.40
 12.0500       0.00
 12.1000       0.00
 12.1500       0.00
 12.2000       0.17
 12.2500       0.76
 12.3000       1.22
 12.3500       2.35
 12.4000       4.26
 12.4500       5.92
 12.5000       6.65
 12.5500       6.02
 12.6000       4.41
 12.6500       3.16
 12.7000       2.65
 12.7500       2.13
 12.8000       1.37
 12.8500       0.42
 12.9000       0.00
 12.9500       1.18
 13.0000       3.85
 13.0500       6.63
 13.1000       8.54
 13.1500       9.04
 13.2000       8.13
 13.2500       6.44
 13.3000       4.41
 13.3500       2.03
 13.4000       0.00
 13.4500       0.00
 13.5000       0.00
 13.5500       0.00
 13.6000       0.00
 13.6500       0.19
 13.7000       1.82
 13.7500       3.00
 13.8000       3.18
 13.8500       2.47
 13.9000       1.49
 13.9500       0.96
 14.0000       1.76
 14.0500       3.72
 14.1000       5.61
 14.1500       6.41
 14.2000       5.59
 14.2500       3.67
 14.3000       2.23
 14.3500       1.97
 14.4000       2.64
 14.4500       3.92
 14.5000       4.75
 14.5500       4.72
 14.6000       4.13
 14.6500       3.11
 14.7000       2.33
 14.7500       3.07
 14.8000       5.41
 14.8500       8.81
 14.9000      11.62
 14.9500      12.39
 15.0000      10.79
 15.0500       8.05
 15.1000       5.88
 15.1500       5.50
 15.2000       6.19
 15.2500       6.97
 15.3000       6.55
 15.3500       4.20
 15.4000       0.91
 15.4500       0.00
 15.5000       0.00
 15.5500       0.00
 15.6000       0.65
 15.6500       5.74
 15.7000      10.81
 15.7500      13.87
 15.8000      13.52
 15.8500      10.36
 15.9000       6.09
 15.9500       2.03
 16.0000       0.00
 16.0500       0.54
 16.1000       2.56
 16.1500       4.78
 16.2000       5.81
 16.2500       4.91
 16.3000       3.13
 16.3500       1.74
 16.4000       1.28
 16.4500       1.34
 16.5000       1.18
 16.5500       0.70
 16.6000       0.45
 16.6500       1.14
 16.7000       2.82
 16.7500       4.51
 16.8000       5.37
 16.8500       5.18
 16.9000       3.97
 16.9500       2.39
 17.0000       1.10
 17.0500       0.34
 17.1000       0.46
 17.1500       1.46
 17.2000       3.00
 17.2500       4.87
 17.3000       6.57
 17.3500       7.33
 17.4000       6.64
 17.4500       4.10
 17.5000       0.26
 17.5500       0.00
 17.6000       0.00
 17.6500       0.00
 17.7000       2.92
 17.7500      11.48
 17.8000      20.37
 17.8500      27.03
 17.9000      29.12
 17.9500      26.21
 18.0000      19.98
 18.0500      12.66
 18.1000       6.04
 18.1500       1.40
 18.2000       0.00
 18.2500       0.00
 18.3000       0.00
 18.3500       0.77
 18.4000       3.40
 18.4500       5.08
 18.5000       4.62
 18.5500       2.34
 18.6000       0.00
 18.6500       0.00
 18.7000       0.00
 18.7500       0.00
 18.8000       0.00
 18.8500       0.00
 18.9000       0.00
 18.9500       1.14
 19.0000       1.38
 19.0500       0.00
 19.1000       0.00
 19.1500       0.00
 19.2000       0.00
 19.2500       0.00
 19.3000       0.00
 19.3500       3.58
 19.4000       8.19
 19.4500      11.29
 19.5000      12.45
 19.5500      11.31
 19.6000       8.00
 19.6500       3.95
 19.7000       0.62
 19.7500       0.00
 19.8000       0.00
 19.8500       0.74
 19.9000       3.38
 19.9500       6.08
 20.0000       7.76
 20.0500       7.28
 20.1000       5.36
 20.1500       3.32
 20.2000       2.52
 20.2500       3.81
 20.3000       5.82
 20.3500       6.54
 20.4000       7.91
 20.4500      15.81
 20.5000      37.13
 20.5500      74.08
 20.6000     118.18
 20.6500     152.85
 20.7000     162.86
 20.7500     143.09
 20.8000     101.86
 20.8500      56.28
 20.9000      21.11
 20.9500       3.10
 21.0000       0.00
 21.0500       4.18
 21.1000       7.91
 21.1500       8.34
 21.2000       7.43
 21.2500      12.83
 21.3000      33.85
 21.3500      74.04
 21.4000     125.62
 21.4500     171.98
 21.5000     194.28
 21.5500     183.01
 21.6000     143.84
 21.6500      93.04
 21.7000      47.40
 21.7500      16.93
 21.8000       2.33
 21.8500       0.00
 21.9000       0.00
 21.9500       1.02
 22.0000       3.17
 22.0500       5.39
 22.1000       7.68
 22.1500       9.23
 22.2000       8.99
 22.2500       6.61
 22.3000       2.88
 22.3500       0.00
 22.4000       0.00
 22.4500       0.00
 22.5000       0.00
 22.5500       0.00
 22.6000       0.00
 22.6500       0.00
 22.7000       0.00
 22.7500       0.00
 22.8000       1.68
 22.8500       2.69
 22.9000       2.47
 22.9500       1.85
 23.0000       1.60
 23.0500       2.34
 23.1000       3.42
 23.1500       3.55
 23.2000       2.70
 23.2500       2.30
 23.3000       3.45
 23.3500       6.61
 23.4000      10.18
 23.4500      11.33
 23.5000       8.89
 23.5500       4.42
 23.6000       1.40
 23.6500       3.52
 23.7000      11.92
 23.7500      23.63
 23.8000      33.89
 23.8500      38.45
 23.9000      35.67
 23.9500      27.64
 24.0000      18.07
 24.0500       9.56
 24.1000       3.45
 24.1500       0.00
 24.2000       0.00
 24.2500       0.00
 24.3000       0.00
 24.3500       3.09
 24.4000       7.05
 24.4500       8.04
 24.5000       5.13
 24.5500       0.32
 24.6000       0.00
 24.6500       0.00
 24.7000       6.32
 24.7500      13.54
 24.8000      16.98
 24.8500      15.03
 24.9000       9.85
 24.9500       5.62
 25.0000       4.21
 25.0500       4.53
 25.1000       4.28
 25.1500       2.27
 25.2000       0.00
 25.2500       0.00
 25.3000       0.00
 25.3500       1.16
 25.4000       3.36
 25.4500       4.17
 25.5000       3.70
 25.5500       2.61
 25.6000       1.54
 25.6500       0.47
 25.7000       0.00
 25.7500       0.95
 25.8000      11.82
 25.8500      39.33
 25.9000      84.85
 25.9500     139.12
 26.0000     182.86
 26.0500     196.13
 26.1000     173.47
 26.1500     125.24
 26.2000      71.83
 26.2500      32.18
 26.3000      12.78
 26.3500       7.90
 26.4000       9.63
 26.4500      10.98
 26.5000       9.48
 26.5500       6.38
 26.6000       2.38
 26.6500       0.00
 26.7000       0.00
 26.7500       0.00
 26.8000       0.00
 26.8500       2.31
 26.9000       8.86
 26.9500      13.65
 27.0000      15.09
 27.0500      12.50
 27.1000       7.33
 27.1500       4.33
 27.2000       9.18
 27.2500      28.11
 27.3000      64.21
 27.3500     113.11
 27.4000     163.16
 27.4500     198.86
 27.5000     206.91
 27.5500     184.66
 27.6000     140.74
 27.6500      90.10
 27.7000      47.38
 27.7500      19.81
 27.8000       6.45
 27.8500       2.59
 27.9000       2.70
 27.9500       3.38
 28.0000       4.14
 28.0500       4.92
 28.1000       5.75
 28.1500       6.63
 28.2000       6.80
 28.2500       5.82
 28.3000       4.33
 28.3500       2.87
 28.4000       2.16
 28.4500       2.40
 28.5000       2.87
 28.5500       2.90
 28.6000       2.57
 28.6500       2.16
 28.7000       2.22
 28.7500       2.92
 28.8000       4.04
 28.8500       5.50
 28.9000       7.19
 28.9500       8.97
 29.0000      10.21
 29.0500      10.25
 29.1000       8.84
 29.1500       6.66
 29.2000       4.64
 29.2500       3.95
 29.3000       5.09
 29.3500       7.95
 29.4000      11.51
 29.4500      16.07
 29.5000      21.07
 29.5500      23.44
 29.6000      20.35
 29.6500      14.01
 29.7000      19.12
 29.7500      69.32
 29.8000     199.36
 29.8500     415.14
 29.9000     675.77
 29.9500     899.29
 30.0000    1000.00
 30.0500     941.01
 30.1000     752.65
 30.1500     510.33
 30.2000     292.98
 30.2500     145.60
 30.3000      68.83
 30.3500      39.15
 30.4000      30.65
 30.4500      27.02
 30.5000      23.17
 30.5500      20.27
 30.6000      19.14
 30.6500      19.74
 30.7000      21.38
 30.7500      22.75
 30.8000      22.52
 30.8500      20.96
 30.9000      19.47
 30.9500      22.43
 31.0000      38.20
 31.0500      74.70
 31.1000     133.21
 31.1500     204.81
 31.2000     269.18
 31.2500     302.85
 31.3000     292.80
 31.3500     242.51
 31.4000     169.88
 31.4500      99.06
 31.5000      47.17
 31.5500      19.23
 31.6000      10.79
 31.6500      12.88
 31.7000      17.26
 31.7500      19.38
 31.8000      17.49
 31.8500      12.71
 31.9000       7.10
 31.9500       2.71
 32.0000       0.46
 32.0500       0.00
 32.1000       0.00
 32.1500       0.00
 32.2000       0.00
 32.2500       0.00
 32.3000       0.00
 32.3500       0.00
 32.4000       0.00
 32.4500       0.00
 32.5000       0.00
 32.5500       0.00
 32.6000       0.00
 32.6500       0.00
 32.7000       2.11
 32.7500       4.31
 32.8000       5.34
 32.8500       4.57
 32.9000       2.91
 32.9500       1.14
 33.0000       0.00
 33.0500       0.00
 33.1000       0.62
 33.1500       1.40
 33.2000       2.12
 33.2500       2.16
 33.3000       1.62
 33.3500       1.22
 33.4000       1.05
 33.4500       0.73
 33.5000       0.00
 33.5500       0.00
 33.6000       0.00
 33.6500       0.00
 33.7000       0.00
 33.7500       0.00
 33.8000       1.64
 33.8500       2.54
 33.9000       1.60
 33.9500       0.39
 34.0000       0.00
 34.0500       0.51
 34.1000       1.66
 34.1500       2.81
 34.2000       3.02
 34.2500       2.71
 34.3000       1.92
 34.3500       0.66
 34.4000       0.00
 34.4500       0.00
 34.5000       0.00
 34.5500       0.00
 34.6000       0.00
 34.6500       0.00
 34.7000       0.00
 34.7500       0.00
 34.8000       0.00
 34.8500       0.00
 34.9000       0.83
 34.9500       2.21
 35.0000       2.36
 35.0500       0.88
 35.1000       0.00
 35.1500       0.00
 35.2000       0.00
 35.2500       0.00
 35.3000       0.89
 35.3500       3.18
 35.4000       5.14
 35.4500       6.77
 35.5000       7.85
 35.5500       7.88
 35.6000       7.09
 35.6500       5.74
 35.7000       4.21
 35.7500       2.79
 35.8000       1.56
 35.8500       0.64
 35.9000       0.65
 35.9500       2.08
 36.0000       4.81
 36.0500       7.90
 36.1000      10.17
 36.1500      10.94
 36.2000      10.38
 36.2500       9.30
 36.3000       8.45
 36.3500       7.73
 36.4000       6.72
 36.4500       5.43
 36.5000       4.24
 36.5500       3.85
 36.6000       4.64
 36.6500       5.51
 36.7000       4.96
 36.7500       2.58
 36.8000       0.00
 36.8500       0.00
 36.9000       0.00
 36.9500       0.00
 37.0000       1.22
 37.0500       3.62
 37.1000       3.46
 37.1500       1.47
 37.2000       0.00
 37.2500       0.00
 37.3000       0.00
 37.3500       1.07
 37.4000       1.28
 37.4500       0.60
 37.5000       0.42
 37.5500       1.51
 37.6000       4.16
 37.6500       7.49
 37.7000       9.58
 37.7500       9.10
 37.8000       6.67
 37.8500       3.60
 37.9000       1.77
 37.9500       2.31
 38.0000       4.50
 38.0500       6.41
 38.1000       6.84
 38.1500       4.98
 38.2000       1.55
 38.2500       0.00
 38.3000       0.00
 38.3500       0.00
 38.4000       0.00
 38.4500       0.00
 38.5000       0.08
 38.5500       0.00
 38.6000       0.00
 38.6500       0.00
 38.7000       0.00
 38.7500       0.00
 38.8000       0.00
 38.8500       1.27
 38.9000       4.81
 38.9500       6.12
 39.0000       4.99
 39.0500       2.50
 39.1000       0.08
 39.1500       0.00
 39.2000       0.00
 39.2500       0.00
 39.3000       0.00
 39.3500       1.00
 39.4000       2.10
 39.4500       3.27
 39.5000       5.70
 39.5500      10.45
 39.6000      16.63
 39.6500      22.69
 39.7000      26.30
 39.7500      25.47
 39.8000      20.84
 39.8500      14.49
 39.9000       8.86
 39.9500       5.98
 40.0000       5.94
 40.0500       7.05
 40.1000       7.41
 40.1500       5.85
 40.2000       2.88
 40.2500       0.47
 40.3000       1.61
 40.3500       8.93
 40.4000      23.62
 40.4500      44.17
 40.5000      65.90
 40.5500      82.15
 40.6000      87.46
 40.6500      80.07
 40.7000      63.13
 40.7500      42.60
 40.8000      24.42
 40.8500      11.84
 40.9000       4.97
 40.9500       1.68
 41.0000       0.00
 41.0500       0.00
 41.1000       0.00
 41.1500       0.00
 41.2000       0.00
 41.2500       0.34
 41.3000       1.68
 41.3500       2.06
 41.4000       1.70
 41.4500       1.36
 41.5000       1.66
 41.5500       1.96
 41.6000       1.63
 41.6500       0.62
 41.7000       0.00
 41.7500       0.02
 41.8000       3.43
 41.8500       9.47
 41.9000      16.60
 41.9500      23.25
 42.0000      27.90
 42.0500      30.03
 42.1000      30.36
 42.1500      29.00
 42.2000      25.63
 42.2500      20.70
 42.3000      15.08
 42.3500      10.18
 42.4000       7.79
 42.4500       7.81
 42.5000       8.77
 42.5500       9.11
 42.6000       7.82
 42.6500       5.13
 42.7000       2.49
 42.7500       0.82
 42.8000       0.77
 42.8500       2.16
 42.9000       4.01
 42.9500       5.25
 43.0000       5.28
 43.0500       3.93
 43.1000       2.14
 43.1500       1.11
 43.2000       1.49
 43.2500       3.12
 43.3000       5.33
 43.3500       7.42
 43.4000       8.75
 43.4500       9.57
 43.5000      10.87
 43.5500      14.31
 43.6000      23.79
 43.6500      43.90
 43.7000      75.41
 43.7500     115.08
 43.8000     153.87
 43.8500     179.02
 43.9000     182.47
 43.9500     163.67
 44.0000     128.39
 44.0500      88.04
 44.1000      52.66
 44.1500      27.07
 44.2000      12.57
 44.2500       7.06
 44.3000       7.00
 44.3500       9.21
 44.4000      10.83
 44.4500      10.28
 44.5000       7.73
 44.5500       4.30
 44.6000       1.70
 44.6500       0.57
 44.7000       0.58
 44.7500       1.48
 44.8000       3.60
 44.8500       7.88
 44.9000      16.10
 44.9500      30.65
 45.0000      52.71
 45.0500      80.54
 45.1000     108.50
 45.1500     128.34
 45.2000     132.42
 45.2500     118.94
 45.3000      92.70
 45.3500      62.30
 45.4000      36.36
 45.4500      20.64
 45.5000      14.84
 45.5500      15.32
 45.6000      17.94
 45.6500      19.87
 45.7000      22.52
 45.7500      31.20
 45.8000      50.02
 45.8500      79.26
 45.9000     114.80
 45.9500     148.25
 46.0000     171.16
 46.0500     177.95
 46.1000     166.81
 46.1500     140.15
 46.2000     105.08
 46.2500      69.89
 46.3000      41.90
 46.3500      24.54
 46.4000      16.86
 46.4500      14.82
 46.5000      14.42
 46.5500      12.75
 46.6000       9.68
 46.6500       6.20
 46.7000       3.61
 46.7500       2.77
 46.8000       3.11
 46.8500       3.49
 46.9000       3.53
 46.9500       3.05
 47.0000       2.63
 47.0500       3.34
 47.1000       4.76
 47.1500       6.37
 47.2000       7.24
 47.2500       6.73
 47.3000       5.77
 47.3500       6.34
 47.4000       9.42
 47.4500      15.94
 47.5000      25.85
 47.5500      39.07
 47.6000      56.11
 47.6500      76.44
 47.7000      96.59
 47.7500     111.52
 47.8000     116.17
 47.8500     108.39
 47.9000      90.45
 47.9500      67.65
 48.0000      45.70
 48.0500      28.70
 48.1000      18.64
 48.1500      15.73
 48.2000      18.30
 48.2500      24.42
 48.3000      32.50
 48.3500      41.72
 48.4000      53.36
 48.4500      68.81
 48.5000      87.59
 48.5500     108.42
 48.6000     128.65
 48.6500     146.72
 48.7000     164.23
 48.7500     182.41
 48.8000     202.10
 48.8500     221.91
 48.9000     235.21
 48.9500     235.28
 49.0000     218.42
 49.0500     183.75
 49.1000     138.79
 49.1500      94.66
 49.2000      58.99
 49.2500      36.24
 49.3000      25.60
 49.3500      20.67
 49.4000      17.58
 49.4500      14.60
 49.5000      10.95
 49.5500       8.18
 49.6000       8.15
 49.6500      10.42
 49.7000      14.41
 49.7500      18.47
 49.8000      20.01
 49.8500      17.92
 49.9000      13.43
 49.9500       8.65
 50.0000       6.10
 50.0500       6.77
 50.1000       9.17
 50.1500      10.91
 50.2000      10.32
 50.2500       7.68
 50.3000       4.71
 50.3500       3.12
 50.4000       3.39
 50.4500       4.31
 50.5000       4.09
 50.5500       2.46
 50.6000       0.14
 50.6500       0.00
 50.7000       0.00
 50.7500       0.00
 50.8000       0.00
 50.8500       0.00
 50.9000       0.00
 50.9500       0.32
 51.0000       1.38
 51.0500       2.62
 51.1000       3.53
 51.1500       4.17
 51.2000       4.57
 51.2500       4.06
 51.3000       2.26
 51.3500       0.38
 51.4000       0.00
 51.4500       2.14
 51.5000       6.53
 51.5500      10.64
 51.6000      11.92
 51.6500       9.82
 51.7000       5.81
 51.7500       2.20
 51.8000       0.21
 51.8500       0.00
 51.9000       0.00
 51.9500       0.00
 52.0000       0.00
 52.0500       0.87
 52.1000       1.63
 52.1500       2.12
 52.2000       2.69
 52.2500       4.79
 52.3000       9.34
 52.3500      14.99
 52.4000      19.15
 52.4500      19.98
 52.5000      17.09
 52.5500      12.47
 52.6000       8.21
 52.6500       4.88
 52.7000       2.27
 52.7500       0.47
 52.8000       0.00
 52.8500       0.12
 52.9000       1.93
 52.9500       3.67
 53.0000       4.41
 53.0500       4.23
 53.1000       3.34
 53.1500       2.43
 53.2000       1.48
 53.2500       0.48
 53.3000       0.32
 53.3500       2.40
 53.4000       7.18
 53.4500      14.09
 53.5000      20.70
 53.5500      24.41
 53.6000      23.91
 53.6500      20.05
 53.7000      14.79
 53.7500      10.64
 53.8000       8.85
 53.8500       8.86
 53.9000       9.00
 53.9500       8.19
 54.0000       5.74
 54.0500       2.87
 54.1000       1.44
 54.1500       2.10
 54.2000       4.47
 54.2500       7.60
 54.3000       9.78
 54.3500      10.73
 54.4000      11.09
 54.4500      10.96
 54.5000      10.08
 54.5500       8.78
 54.6000       7.49
 54.6500       7.33
 54.7000       9.63
 54.7500      13.92
 54.8000      18.12
 54.8500      20.88
 54.9000      21.42
 54.9500      19.84
 55.0000      17.71
 55.0500      15.74
 55.1000      13.46
 55.1500      10.84
 55.2000       7.42
 55.2500       3.45
 55.3000       0.60
 55.3500       0.00
 55.4000       1.55
 55.4500       4.62
 55.5000       6.89
 55.5500       7.55
 55.6000       7.18
 55.6500       6.43
 55.7000       6.51
 55.7500       7.76
 55.8000       8.82
 55.8500       9.75
 55.9000      10.71
 55.9500      11.12
 56.0000      11.52
 56.0500      11.77
 56.1000      10.80
 56.1500       8.95
 56.2000       7.27
 56.2500       6.43
 56.3000       7.81
 56.3500      11.64
 56.4000      16.56
 56.4500      21.16
 56.5000      25.02
 56.5500      28.18
 56.6000      31.99
 56.6500      37.67
 56.7000      45.50
 56.7500      54.81
 56.8000      64.69
 56.8500      73.93
 56.9000      82.08
 56.9500      88.55
 57.0000      92.47
 57.0500      92.03
 57.1000      85.44
 57.1500      72.87
 57.2000      56.93
 57.2500      41.45
 57.3000      29.82
 57.3500      22.38
 57.4000      17.16
 57.4500      12.29
 57.5000       7.58
 57.5500       4.48
 57.6000       4.45
 57.6500       7.13
 57.7000      10.47
 57.7500      11.90
 57.8000      10.54
 57.8500       7.30
 57.9000       3.66
 57.9500       1.01
 58.0000       0.00
 58.0500       0.48
 58.1000       2.34
 58.1500       5.38
 58.2000       8.56
 58.2500      10.44
 58.3000      10.28
 58.3500       8.36
 58.4000       5.68
 58.4500       4.00
 58.5000       3.76
 58.5500       3.99
 58.6000       3.93
 58.6500       3.80
 58.7000       4.36
 58.7500       6.95
 58.8000      11.81
 58.8500      17.74
 58.9000      24.35
 58.9500      32.52
 59.0000      43.04
 59.0500      55.91
 59.1000      69.46
 59.1500      79.66
 59.2000      83.84
 59.2500      81.18
 59.3000      72.60
 59.3500      60.91
 59.4000      49.27
 59.4500      38.86
 59.5000      30.71
 59.5500      24.56
 59.6000      20.43
 59.6500      19.46
 59.7000      22.65
 59.7500      29.91
 59.8000      39.98
 59.8500      49.92
 59.9000      57.31
 59.9500      60.54
 60.0000      59.27
 60.0500      54.52
 60.1000      47.08
 60.1500      37.64
 60.2000      27.24
 60.2500      16.53
 60.3000       7.43
 60.3500       1.90
 60.4000       0.34
 60.4500       1.85
 60.5000       4.35
 60.5500       5.42
 60.6000       5.06
 60.6500       4.17
 60.7000       3.81
 60.7500       4.21
 60.8000       4.86
 60.8500       5.01
 60.9000       5.51
 60.9500       7.80
 61.0000      13.12
 61.0500      20.75
 61.1000      29.57
 61.1500      38.37
 61.2000      46.84
 61.2500      55.83
 61.3000      65.60
 61.3500      73.58
 61.4000      77.02
 61.4500      73.94
 61.5000      64.30
 61.5500      50.97
 61.6000      37.98
 61.6500      27.16
 61.7000      18.94
 61.7500      12.98
 61.8000       8.53
 61.8500       5.58
 61.9000       4.92
 61.9500       6.68
 62.0000      10.07
 62.0500      14.03
 62.1000      16.95
 62.1500      17.49
 62.2000      15.25
 62.2500      11.00
 62.3000       6.32
 62.3500       2.92
 62.4000       1.80
 62.4500       2.84
 62.5000       4.80
 62.5500       6.32
 62.6000       7.04
 62.6500       7.01
 62.7000       6.83
 62.7500       6.89
 62.8000       7.06
 62.8500       6.75
 62.9000       5.92
 62.9500       4.29
 63.0000       2.22
 63.0500       0.41
 63.1000       0.00
 63.1500       1.19
 63.2000       4.14
 63.2500       7.23
 63.3000       8.59
 63.3500       7.29
 63.4000       4.13
 63.4500       0.62
 63.5000       0.00
 63.5500       0.00
 63.6000       1.49
 63.6500       3.59
 63.7000       4.85
 63.7500       4.60
 63.8000       3.67
 63.8500       2.95
 63.9000       2.20
 63.9500       1.17
 64.0000       0.00
 64.0500       0.00
 64.1000       0.00
 64.1500       0.83
 64.2000       3.48
 64.2500       5.58
 64.3000       5.84
 64.3500       4.08
 64.4000       1.46
 64.4500       0.00
 64.5000       0.00
 64.5500       0.76
 64.6000       2.23
 64.6500       2.79
 64.7000       1.86
 64.7500       0.04
 64.8000       0.00
 64.8500       0.00
 64.9000       0.00
 64.9500       0.01
 65.0000       2.15
 65.0500       4.55
 65.1000       7.07
 65.1500       9.14
 65.2000      10.65
 65.2500      11.32
 65.3000      10.36
 65.3500       7.97
 65.4000       4.85
 65.4500       2.12
 65.5000       0.93
 65.5500       1.42
 65.6000       2.50
 65.6500       3.42
 65.7000       3.49
 65.7500       2.77
 65.8000       2.03
 65.8500       1.65
 65.9000       1.40
 65.9500       1.24
 66.0000       0.59
 66.0500       0.00
 66.1000       0.00
 66.1500       0.00
 66.2000       0.00
 66.2500       2.07
 66.3000       4.89
 66.3500       7.05
 66.4000       8.09
 66.4500       7.59
 66.5000       5.94
 66.5500       3.92
 66.6000       2.57
 66.6500       2.32
 66.7000       2.69
 66.7500       3.00
 66.8000       2.79
 66.8500       2.05
 66.9000       1.83
 66.9500       2.54
 67.0000       3.69
 67.0500       5.23
 67.1000       6.48
 67.1500       7.09
 67.2000       7.34
 67.2500       7.02
 67.3000       5.55
 67.3500       3.33
 67.4000       0.63
 67.4500       0.00
 67.5000       0.00
 67.5500       0.00
 67.6000       2.33
 67.6500       4.35
 67.7000       4.68
 67.7500       3.46
 67.8000       1.93
 67.8500       2.04
 67.9000       4.60
 67.9500       9.52
 68.0000      15.31
 68.0500      19.70
 68.1000      21.03
 68.1500      19.42
 68.2000      16.07
 68.2500      12.93
 68.3000      10.98
 68.3500       9.76
 68.4000       8.06
 68.4500       5.33
 68.5000       2.02
 68.5500       0.00
 68.6000       0.00
 68.6500       0.86
 68.7000       4.16
 68.7500       7.63
 68.8000      10.11
 68.8500      11.00
 68.9000      10.46
 68.9500       9.24
 69.0000       7.75
 69.0500       7.06
 69.1000       7.99
 69.1500      10.76
 69.2000      16.25
 69.2500      24.06
 69.3000      32.46
 69.3500      40.28
 69.4000      45.86
 69.4500      47.37
 69.5000      45.95
 69.5500      42.34
 69.6000      37.26
 69.6500      32.34
 69.7000      28.00
 69.7500      23.51
 69.8000      19.88
 69.8500      17.13
 69.9000      14.94
 69.9500      13.53
 70.0000      12.21
 70.0500       9.79
 70.1000       6.94
 70.1500       4.65
 70.2000       4.01
 70.2500       6.30
 70.3000      11.34
 70.3500      18.03
 70.4000      25.20
 70.4500      30.86
 70.5000      33.28
 70.5500      31.91
 70.6000      26.90
 70.6500      20.61
 70.7000      15.99
 70.7500      14.15
 70.8000      15.09
 70.8500      17.39
 70.9000      18.07
 70.9500      16.48
 71.0000      13.71
 71.0500      11.95
 71.1000      14.36
 71.1500      22.31
 71.2000      33.55
 71.2500      44.90
 71.3000      53.12
 71.3500      56.78
 71.4000      57.10
 71.4500      55.88
 71.5000      53.57
 71.5500      49.89
 71.6000      44.07
 71.6500      36.10
 71.7000      27.93
 71.7500      21.88
 71.8000      18.90
 71.8500      18.95
 71.9000      20.88
 71.9500      23.15
 72.0000      25.85
 72.0500      28.88
 72.1000      31.39
 72.1500      32.77
 72.2000      32.22
 72.2500      29.24
 72.3000      25.01
 72.3500      20.33
 72.4000      15.99
 72.4500      12.65
 72.5000      10.34
 72.5500       9.00
 72.6000       8.69
 72.6500       8.86
 72.7000       9.16
 72.7500       8.81
 72.8000       7.26
 72.8500       5.00
 72.9000       3.05
 72.9500       2.64
 73.0000       4.66
 73.0500       8.95
 73.1000      14.35
 73.1500      19.91
 73.2000      24.91
 73.2500      29.45
 73.3000      34.18
 73.3500      39.55
 73.4000      44.58
 73.4500      48.29
 73.5000      48.91
 73.5500      45.75
 73.6000      39.66
 73.6500      32.24
 73.7000      25.08
 73.7500      20.10
 73.8000      17.08
 73.8500      15.40
 73.9000      14.51
 73.9500      13.72
 74.0000      12.59
 74.0500      11.19
 74.1000       8.80
 74.1500       5.41
 74.2000       2.02
 74.2500       0.00
 74.3000       0.00
 74.3500       0.60
 74.4000       2.14
 74.4500       2.99
 74.5000       3.02
 74.5500       2.57
 74.6000       1.60
 74.6500       0.62
 74.7000       0.00
 74.7500       0.00
 74.8000       0.42
 74.8500       1.61
 74.9000       2.43
 74.9500       2.79
 75.0000       2.99
 75.0500       3.33
 75.1000       4.25
 75.1500       5.67
 75.2000       6.45
 75.2500       6.11
 75.3000       4.80
 75.3500       2.94
 75.4000       1.42
 75.4500       0.71
 75.5000       0.50
 75.5500       0.46
 75.6000       0.47
 75.6500       0.59
 75.7000       0.86
 75.7500       1.10
 75.8000       1.23
 75.8500       1.03
 75.9000       0.54
 75.9500       0.21
 76.0000       0.00
 76.0500       0.00
 76.1000       0.00
 76.1500       0.42
 76.2000       1.28
 76.2500       2.51
 76.3000       3.30
 76.3500       2.94
 76.4000       1.76
 76.4500       0.14
 76.5000       0.00
 76.5500       0.15
 76.6000       2.90
 76.6500       6.90
 76.7000      11.56
 76.7500      15.27
 76.8000      17.30
 76.8500      18.25
 76.9000      18.34
 76.9500      18.74
 77.0000      20.37
 77.0500      21.93
 77.1000      22.11
 77.1500      20.57
 77.2000      16.98
 77.2500      12.87
 77.3000      10.00
 77.3500       8.74
 77.4000       9.37
 77.4500      11.55
 77.5000      13.71
 77.5500      14.81
 77.6000      13.70
 77.6500      10.34
 77.7000       6.55
 77.7500       4.16
 77.8000       4.18
 77.8500       6.86
 77.9000      10.47
 77.9500      13.36
 78.0000      14.71
 78.0500      14.24
 78.1000      13.01
 78.1500      12.93
 78.2000      14.19
 78.2500      15.86
 78.3000      16.15
 78.3500      13.48
 78.4000       8.71
 78.4500       4.36
 78.5000       1.97
 78.5500       1.75
 78.6000       2.37
 78.6500       2.13
 78.7000       0.90
 78.7500       0.00
 78.8000       0.00
 78.8500       0.00
 78.9000       0.24
 78.9500       0.71
 79.0000       0.92
 79.0500       1.14
 79.1000       1.47
 79.1500       1.85
 79.2000       2.18
 79.2500       3.11
 79.3000       5.28
 79.3500       9.02
 79.4000      14.04
 79.4500      19.15
 79.5000      22.61
 79.5500      23.28
 79.6000      20.55
 79.6500      15.03
 79.7000       8.68
 79.7500       3.45
 79.8000       0.53
 79.8500       0.00
 79.9000       0.00
 79.9500       0.00
 80.0000       0.00